posFile,stimFile,cs_plus_s,cs_minus_s,cs_plus_ns,cs_minus_ns,stimtype,position,trialtype,trials_threshold.thisRepN,trials_threshold.thisTrialN,trials_threshold.thisN,trials_threshold.thisIndex,blocks.thisRepN,blocks.thisTrialN,blocks.thisN,blocks.thisIndex,ratingtrials1.thisRepN,ratingtrials1.thisTrialN,ratingtrials1.thisN,ratingtrials1.thisIndex,learning_trials.thisRepN,learning_trials.thisTrialN,learning_trials.thisN,learning_trials.thisIndex,trials.thisRepN,trials.thisTrialN,trials.thisN,trials.thisIndex,ratingtrials2.thisRepN,ratingtrials2.thisTrialN,ratingtrials2.thisN,ratingtrials2.thisIndex,testtrials.thisRepN,testtrials.thisTrialN,testtrials.thisN,testtrials.thisIndex,ratingtrials3.thisRepN,ratingtrials3.thisTrialN,ratingtrials3.thisN,ratingtrials3.thisIndex,textStart.started,spaceStart.started,spaceStart.keys,spaceStart.rt,textPainThreshold.started,spacePainThreshold.started,spacePainThreshold.keys,spacePainThreshold.rt,textRateT.started,text_noPainT.started,text_slightPainT.started,text_highPainT.started,sliderPainT.started,keys_PainT.started,sliderPainT.response,sliderPainT.rt,keys_PainT.keys,keys_PainT.rt,fixcrossT.started,portShock1T.started,portShock1T.stopped,portShock2T.started,portShock2T.stopped,portShock3T.started,portShock3T.stopped,fixcrossT.stopped,text_ETCalibration.started,spaceETCalibration.started,spaceETCalibration.keys,spaceETCalibration.rt,textStartExp.started,spaceStartExp.started,spaceStartExp.keys,spaceStartExp.rt,imageRating.started,sliderStim.started,spaceStim.started,sliderStim.response,sliderStim.rt,spaceStim.keys,spaceStim.rt,textStartTask.started,spaceStartTask.started,spaceStartTask.keys,spaceStartTask.rt,blankScreen.started,blankScreen.stopped,fixcross.started,image.started,roi.started,gazeCursor.started,portImage.started,portImage.stopped,score,outcome,roi.numLooks,roi.timesOn,roi.timesOff,imageFeedback.started,gazeCursor_Feedback.started,soundFeedback.started,portShock1.started,portShock1.stopped,portShock2.started,portShock2.stopped,portShock3.started,portShock3.stopped,soundFeedback.stopped,fixcrossE.started,fixcrossE.stopped,textRepeatTask.started,textboxRepeatInstruction.started,textRepeatSpace.started,spaceRepeatTask.started,spaceRepeatTask.keys,spaceRepeatTask.rt,textRate.started,text_noPain.started,text_slightPain.started,text_highPain.started,sliderPain.started,textSpacePain.started,spacePain.started,sliderPain.response,sliderPain.rt,spacePain.keys,spacePain.rt,textTestInstr.started,spaceTestInstr.started,spaceTestInstr.keys,spaceTestInstr.rt,imageTest.started,roiTest.started,portTestImage.started,portTestImage.stopped,roiTest.numLooks,roiTest.timesOn,roiTest.timesOff,participant,group,date,expName,psychopyVersion,frameRate,
,,,,,,,,,,,,,,,,,,,,,,,,,,,,,,,,,,,,,,,,,14.875167199992575,14.875167199992575,space,5.094265000006999,,,,,,,,,,,,,,,,,,,,,,,,,,,,,,,,,,,,,,,,,,,,,,,,,,,,,,,,,,,,,,,,,,,,,,,,,,,,,,,,,,,,,,,,,,,,,,,14,C,2023-12-08_14h45.49.715,gca_avoidance_task,2022.2.4,143.8317053892403,
,,,,,,,,,,,,,,,,,,,,,,,,,,,,,,,,,,,,,,,,,,,,,19.979094399997848,19.979094399997848,space,1.406454100011615,,,,,,,,,,,,,,,,,,,,,,,,,,,,,,,,,,,,,,,,,,,,,,,,,,,,,,,,,,,,,,,,,,,,,,,,,,,,,,,,,,,,,,,,,,,14,C,2023-12-08_14h45.49.715,gca_avoidance_task,2022.2.4,143.8317053892403,
,,,,,,,,,0,0,0,0,,,,,,,,,,,,,,,,,,,,,,,,,,,,,,,,,,,,,22.451257399996393,22.451257399996393,22.451257399996393,22.451257399996393,22.451257399996393,22.451257399996393,None,None,s,10.861923499993281,33.922982799995225,0.10373360000085086,0.11067190000903793,0.1523740000120597,0.15932750000501983,0.2009225000074366,0.20786530000623316,34.69379520000075,,,,,,,,,,,,,,,,,,,,,,,,,,,,,,,,,,,,,,,,,,,,,,,,,,,,,,,,,,,,,,,,,,,,,,,,,14,C,2023-12-08_14h45.49.715,gca_avoidance_task,2022.2.4,143.8317053892403,
,,,,,,,,,1,0,1,0,,,,,,,,,,,,,,,,,,,,,,,,,,,,,,,,,,,,,34.69379520000075,34.69379520000075,34.69379520000075,34.69379520000075,34.69379520000075,34.69379520000075,0.0,5.128423300004215,s,9.074773499989533,44.29759129999729,0.1050381999957608,0.11195909998787101,0.1536296999984188,0.16063139999459963,0.202271699992707,0.20920599999953993,,,,,,,,,,,,,,,,,,,,,,,,,,,,,,,,,,,,,,,,,,,,,,,,,,,,,,,,,,,,,,,,,,,,,,,,,,14,C,2023-12-08_14h45.49.715,gca_avoidance_task,2022.2.4,143.8317053892403,
,,,,,,,,,2,0,2,0,,,,,,,,,,,,,,,,,,,,,,,,,,,,,,,,,,,,,45.061423399994965,45.061423399994965,45.061423399994965,45.061423399994965,45.061423399994965,45.061423399994965,1.0,8.48265910000191,s,18.85126019999734,64.43570639999234,0.10018440001294948,0.10716570001386572,0.15579900000011548,0.16271560000313912,0.20434630000090692,0.21130330000596587,65.19952579999517,,,,,,,,,,,,,,,,,,,,,,,,,,,,,,,,,,,,,,,,,,,,,,,,,,,,,,,,,,,,,,,,,,,,,,,,,14,C,2023-12-08_14h45.49.715,gca_avoidance_task,2022.2.4,143.8317053892403,
,,,,,,,,,3,0,3,0,,,,,,,,,,,,,,,,,,,,,,,,,,,,,,,,,,,,,65.19952579999517,65.19952579999517,65.19952579999517,65.19952579999517,65.19952579999517,65.19952579999517,1.0,1.9816516999999294,s,7.265046300002723,73.01165980000223,0.1006684000021778,0.10766439999861177,0.14928949999739416,0.1562887000036426,0.20485399999597576,0.21182900000712834,73.78251479999744,,,,,,,,,,,,,,,,,,,,,,,,,,,,,,,,,,,,,,,,,,,,,,,,,,,,,,,,,,,,,,,,,,,,,,,,,14,C,2023-12-08_14h45.49.715,gca_avoidance_task,2022.2.4,143.8317053892403,
,,,,,,,,,4,0,4,0,,,,,,,,,,,,,,,,,,,,,,,,,,,,,,,,,,,,,73.78251479999744,73.78251479999744,73.78251479999744,73.78251479999744,73.78251479999744,73.78251479999744,1.0,1.8828550000034738,s,5.010496900009457,79.32394639999256,0.10542600000917446,0.11238420000881888,0.1540452000044752,0.1610629000060726,0.20265310000104364,0.20961050000914838,,,,,,,,,,,,,,,,,,,,,,,,,,,,,,,,,,,,,,,,,,,,,,,,,,,,,,,,,,,,,,,,,,,,,,,,,,14,C,2023-12-08_14h45.49.715,gca_avoidance_task,2022.2.4,143.8317053892403,
,,,,,,,,,5,0,5,0,,,,,,,,,,,,,,,,,,,,,,,,,,,,,,,,,,,,,80.08778639999218,80.08778639999218,80.08778639999218,80.08778639999218,80.08778639999218,80.08778639999218,2.0,1.5769418999989284,s,6.328841399998055,86.94863909999549,0.1038171000109287,0.1107730000076117,0.15248380000411998,0.15939410000282805,0.2010359999985667,0.20804620000126306,87.71251230000053,,,,,,,,,,,,,,,,,,,,,,,,,,,,,,,,,,,,,,,,,,,,,,,,,,,,,,,,,,,,,,,,,,,,,,,,,14,C,2023-12-08_14h45.49.715,gca_avoidance_task,2022.2.4,143.8317053892403,
,,,,,,,,,6,0,6,0,,,,,,,,,,,,,,,,,,,,,,,,,,,,,,,,,,,,,87.71251230000053,87.71251230000053,87.71251230000053,87.71251230000053,87.71251230000053,87.71251230000053,2.0,1.0831955000030575,s,6.592283000005409,94.844145199997,0.10254140000324696,0.10951150000619236,0.15111460001207888,0.15803970000706613,0.19972640000924002,0.20667369999864604,95.60106269999233,,,,,,,,,,,,,,,,,,,,,,,,,,,,,,,,,,,,,,,,,,,,,,,,,,,,,,,,,,,,,,,,,,,,,,,,,14,C,2023-12-08_14h45.49.715,gca_avoidance_task,2022.2.4,143.8317053892403,
,,,,,,,,,7,0,7,0,,,,,,,,,,,,,,,,,,,,,,,,,,,,,,,,,,,,,95.60106269999233,95.60106269999233,95.60106269999233,95.60106269999233,95.60106269999233,95.60106269999233,3.0,1.5847706999920774,s,6.95187900000019,103.07995200000005,0.10344830001122318,0.11037860000215005,0.15205570000398438,0.1590081000031205,0.20067200000630692,0.20762070000637323,103.84380089999468,,,,,,,,,,,,,,,,,,,,,,,,,,,,,,,,,,,,,,,,,,,,,,,,,,,,,,,,,,,,,,,,,,,,,,,,,14,C,2023-12-08_14h45.49.715,gca_avoidance_task,2022.2.4,143.8317053892403,
,,,,,,,,,8,0,8,0,,,,,,,,,,,,,,,,,,,,,,,,,,,,,,,,,,,,,103.84380089999468,103.84380089999468,103.84380089999468,103.84380089999468,103.84380089999468,103.84380089999468,3.0,1.0812367999897106,s,5.845274800012703,110.21162589998858,0.10035769999376498,0.10733080000500195,0.1559337999933632,0.1628692999947816,0.20451280000270344,0.21146869999938644,110.97549749999598,,,,,,,,,,,,,,,,,,,,,,,,,,,,,,,,,,,,,,,,,,,,,,,,,,,,,,,,,,,,,,,,,,,,,,,,,14,C,2023-12-08_14h45.49.715,gca_avoidance_task,2022.2.4,143.8317053892403,
,,,,,,,,,9,0,9,0,,,,,,,,,,,,,,,,,,,,,,,,,,,,,,,,,,,,,110.97549749999598,110.97549749999598,110.97549749999598,110.97549749999598,110.97549749999598,110.97549749999598,3.0,1.1376650999882258,s,6.593162900011521,118.0932468999963,0.10374469999806024,0.1106932999973651,0.15229440000257455,0.15924500000255648,0.2008917999919504,0.20784550000098534,118.85710019999533,,,,,,,,,,,,,,,,,,,,,,,,,,,,,,,,,,,,,,,,,,,,,,,,,,,,,,,,,,,,,,,,,,,,,,,,,14,C,2023-12-08_14h45.49.715,gca_avoidance_task,2022.2.4,143.8317053892403,
,,,,,,,,,10,0,10,0,,,,,,,,,,,,,,,,,,,,,,,,,,,,,,,,,,,,,118.85710019999533,118.85710019999533,118.85710019999533,118.85710019999533,118.85710019999533,118.85710019999533,3.0,1.1289557999989484,s,4.7439028000080725,124.16243799999938,0.10154280001006555,0.10857860000396613,0.1501752000040142,0.1571247000101721,0.20574810000834987,0.21273810000275262,124.9263198999979,,,,,,,,,,,,,,,,,,,,,,,,,,,,,,,,,,,,,,,,,,,,,,,,,,,,,,,,,,,,,,,,,,,,,,,,,14,C,2023-12-08_14h45.49.715,gca_avoidance_task,2022.2.4,143.8317053892403,
,,,,,,,,,11,0,11,0,,,,,,,,,,,,,,,,,,,,,,,,,,,,,,,,,,,,,124.9263198999979,124.9263198999979,124.9263198999979,124.9263198999979,124.9263198999979,124.9263198999979,3.0,1.4082610000041313,s,6.731109300002572,132.18295049999142,0.09966639999765903,0.10664209999958985,0.15524370000639465,0.16217820000019856,0.20388040000398178,0.21079589999862947,133.0857160000014,,,,,,,,,,,,,,,,,,,,,,,,,,,,,,,,,,,,,,,,,,,,,,,,,,,,,,,,,,,,,,,,,,,,,,,,,14,C,2023-12-08_14h45.49.715,gca_avoidance_task,2022.2.4,143.8317053892403,
,,,,,,,,,12,0,12,0,,,,,,,,,,,,,,,,,,,,,,,,,,,,,,,,,,,,,133.0857160000014,133.0857160000014,133.0857160000014,133.0857160000014,133.0857160000014,133.0857160000014,4.0,1.177520800003549,s,6.627734599998803,140.24514179999824,0.1026687999983551,0.10964070000045467,0.1513109999941662,0.15824209999118466,0.1998825000046054,0.2068336999946041,141.1062360999931,,,,,,,,,,,,,,,,,,,,,,,,,,,,,,,,,,,,,,,,,,,,,,,,,,,,,,,,,,,,,,,,,,,,,,,,,14,C,2023-12-08_14h45.49.715,gca_avoidance_task,2022.2.4,143.8317053892403,
,,,,,,,,,13,0,13,0,,,,,,,,,,,,,,,,,,,,,,,,,,,,,,,,,,,,,141.1062360999931,141.1062360999931,141.1062360999931,141.1062360999931,141.1062360999931,141.1062360999931,4.0,1.187331399996765,s,8.00646490001236,149.64057809999213,0.10016780000296421,0.10711609999998473,0.15571570000611246,0.16269560001092032,0.20429630001308396,0.2112395000003744,150.48083689999476,,,,,,,,,,,,,,,,,,,,,,,,,,,,,,,,,,,,,,,,,,,,,,,,,,,,,,,,,,,,,,,,,,,,,,,,,14,C,2023-12-08_14h45.49.715,gca_avoidance_task,2022.2.4,143.8317053892403,
,,,,,,,,,14,0,14,0,,,,,,,,,,,,,,,,,,,,,,,,,,,,,,,,,,,,,150.48083689999476,150.48083689999476,150.48083689999476,150.48083689999476,150.48083689999476,150.48083689999476,4.0,1.1242702000017744,s,7.368984799992177,158.3763384999911,0.10533419999410398,0.112306199996965,0.15391019999515265,0.1608665999956429,0.202521599989268,0.20947299999534152,,,,,,,,,,,,,,,,,,,,,,,,,,,,,,,,,,,,,,,,,,,,,,,,,,,,,,,,,,,,,,,,,,,,,,,,,,14,C,2023-12-08_14h45.49.715,gca_avoidance_task,2022.2.4,143.8317053892403,
,,,,,,,,,15,0,15,0,,,,,,,,,,,,,,,,,,,,,,,,,,,,,,,,,,,,,159.14020749999327,159.14020749999327,159.14020749999327,159.14020749999327,159.14020749999327,159.14020749999327,5.0,1.0559462000092026,s,4.748884300002828,164.39694959999179,0.10031369999342132,0.10730679999687709,0.15586649999022484,0.16281539999181405,0.20447259998763911,0.21143539999320637,165.16776559999562,,,,,,,,,,,,,,,,,,,,,,,,,,,,,,,,,,,,,,,,,,,,,,,,,,,,,,,,,,,,,,,,,,,,,,,,,14,C,2023-12-08_14h45.49.715,gca_avoidance_task,2022.2.4,143.8317053892403,
,,,,,,,,,16,0,16,0,,,,,,,,,,,,,,,,,,,,,,,,,,,,,,,,,,,,,165.16776559999562,165.16776559999562,165.16776559999562,165.16776559999562,165.16776559999562,165.16776559999562,5.0,0.9794920999993337,s,5.9694162999949185,171.68138049999834,0.1021586999995634,0.10911140000098385,0.15075609998893924,0.1576889999996638,0.19936289999168366,0.20633570000063628,172.4451979000005,,,,,,,,,,,,,,,,,,,,,,,,,,,,,,,,,,,,,,,,,,,,,,,,,,,,,,,,,,,,,,,,,,,,,,,,,14,C,2023-12-08_14h45.49.715,gca_avoidance_task,2022.2.4,143.8317053892403,
,,,,,,,,,17,0,17,0,,,,,,,,,,,,,,,,,,,,,,,,,,,,,,,,,,,,,172.4451979000005,172.4451979000005,172.4451979000005,172.4451979000005,172.4451979000005,172.4451979000005,6.0,1.0604393999965396,s,6.93206160000409,179.91022029999294,0.10342470000614412,0.11038769999868236,0.1520377999986522,0.15899160000844859,0.20069209999928717,0.20759970000653993,180.6810026000021,,,,,,,,,,,,,,,,,,,,,,,,,,,,,,,,,,,,,,,,,,,,,,,,,,,,,,,,,,,,,,,,,,,,,,,,,14,C,2023-12-08_14h45.49.715,gca_avoidance_task,2022.2.4,143.8317053892403,
,,,,,,,,,18,0,18,0,,,,,,,,,,,,,,,,,,,,,,,,,,,,,,,,,,,,,180.6810026000021,180.6810026000021,180.6810026000021,180.6810026000021,180.6810026000021,180.6810026000021,6.0,1.3463116999919293,s,7.392307600006461,188.61820529999386,0.1048097000020789,0.11175959999673069,0.15343659999780357,0.16040520000387914,0.20204329999978654,0.20901880000019446,,,,,,,,,,,,,,,,,,,,,,,,,,,,,,,,,,,,,,,,,,,,,,,,,,,,,,,,,,,,,,,,,,,,,,,,,,14,C,2023-12-08_14h45.49.715,gca_avoidance_task,2022.2.4,143.8317053892403,
,,,,,,,,,19,0,19,0,,,,,,,,,,,,,,,,,,,,,,,,,,,,,,,,,,,,,189.38901329999499,189.38901329999499,189.38901329999499,189.38901329999499,189.38901329999499,189.38901329999499,7.0,1.9376042999938363,s,9.683530400012387,199.59697689999302,0.10483559999556746,0.11178770000697114,0.1534828000003472,0.1604120999982115,0.20204780000494793,0.20904119999613613,,,,,,,,,,,,,,,,,,,,,,,,,,,,,,,,,,,,,,,,,,,,,,,,,,,,,,,,,,,,,,,,,,,,,,,,,,14,C,2023-12-08_14h45.49.715,gca_avoidance_task,2022.2.4,143.8317053892403,
,,,,,,,,,20,0,20,0,,,,,,,,,,,,,,,,,,,,,,,,,,,,,,,,,,,,,200.36078449999331,200.36078449999331,200.36078449999331,200.36078449999331,200.36078449999331,200.36078449999331,7.0,2.1309299999993527,s,7.696749299997464,208.67295829999784,0.10589390000677668,0.11285119999956805,0.15448860000469722,0.1614432000060333,0.2031210999994073,0.2100541000108933,209.44375910000235,,,,,,,,,,,,,,,,,,,,,,,,,,,,,,,,,,,,,,,,,,,,,,,,,,,,,,,,,,,,,,,,,,,,,,,,,14,C,2023-12-08_14h45.49.715,gca_avoidance_task,2022.2.4,143.8317053892403,
,,,,,,,,,21,0,21,0,,,,,,,,,,,,,,,,,,,,,,,,,,,,,,,,,,,,,209.44375910000235,209.44375910000235,209.44375910000235,209.44375910000235,209.44375910000235,209.44375910000235,6.0,3.062827500005369,s,7.973514700002852,217.95036560000153,0.10523560000001453,0.11222100000304636,0.1538349000038579,0.16077299999597017,0.20243639999534935,0.2093892999982927,,,,,,,,,,,,,,,,,,,,,,,,,,,,,,,,,,,,,,,,,,,,,,,,,,,,,,,,,,,,,,,,,,,,,,,,,,14,C,2023-12-08_14h45.49.715,gca_avoidance_task,2022.2.4,143.8317053892403,
,,,,,,,,,22,0,22,0,,,,,,,,,,,,,,,,,,,,,,,,,,,,,,,,,,,,,218.71421429999464,218.71421429999464,218.71421429999464,218.71421429999464,218.71421429999464,218.71421429999464,6.0,1.469473699995433,s,7.175050999998348,226.42925580000156,0.09911980001197662,0.10604130000865553,0.1546478000091156,0.1615936000016518,0.20329400000628084,0.2102362000005087,227.2764138999919,,,,,,,,,,,,,,,,,,,,,,,,,,,,,,,,,,,,,,,,,,,,,,,,,,,,,,,,,,,,,,,,,,,,,,,,,14,C,2023-12-08_14h45.49.715,gca_avoidance_task,2022.2.4,143.8317053892403,
,,,,,,,,,23,0,23,0,,,,,,,,,,,,,,,,,,,,,,,,,,,,,,,,,,,,,227.2764138999919,227.2764138999919,227.2764138999919,227.2764138999919,227.2764138999919,227.2764138999919,7.0,2.2026672000065446,s,8.324809400000959,236.1302069999947,0.10408670001197606,0.11107369999808725,0.1527085999987321,0.15964600000006612,0.20128930000646506,0.2082598999986658,236.8940614000021,,,,,,,,,,,,,,,,,,,,,,,,,,,,,,,,,,,,,,,,,,,,,,,,,,,,,,,,,,,,,,,,,,,,,,,,,14,C,2023-12-08_14h45.49.715,gca_avoidance_task,2022.2.4,143.8317053892403,
,,,,,,,,,24,0,24,0,,,,,,,,,,,,,,,,,,,,,,,,,,,,,,,,,,,,,236.8940614000021,236.8940614000021,236.8940614000021,236.8940614000021,236.8940614000021,236.8940614000021,5.0,24.649429699988104,s,49.91497959999833,287.3364872999955,0.10318190000543837,0.1101699999999255,0.15178640000522137,0.1587411000073189,0.20039120000728872,0.2073495000076946,288.22536019999825,,,,,,,,,,,,,,,,,,,,,,,,,,,,,,,,,,,,,,,,,,,,,,,,,,,,,,,,,,,,,,,,,,,,,,,,,14,C,2023-12-08_14h45.49.715,gca_avoidance_task,2022.2.4,143.8317053892403,
,,,,,,,,,25,0,25,0,,,,,,,,,,,,,,,,,,,,,,,,,,,,,,,,,,,,,288.22536019999825,288.22536019999825,288.22536019999825,288.22536019999825,288.22536019999825,288.22536019999825,6.0,19.62730650001322,s,45.55269590001262,334.31378289998975,0.10471949999919161,0.11170860000129323,0.15327870000328403,0.16021149999869522,0.2018845999991754,0.20885290000296663,,,,,,,,,,,,,,,,,,,,,,,,,,,,,,,,,,,,,,,,,,,,,,,,,,,,,,,,,,,,,,,,,,,,,,,,,,14,C,2023-12-08_14h45.49.715,gca_avoidance_task,2022.2.4,143.8317053892403,
,,,,,,,,,26,0,26,0,,,,,,,,,,,,,,,,,,,,,,,,,,,,,,,,,,,,,335.07764259999385,335.07764259999385,335.07764259999385,335.07764259999385,335.07764259999385,335.07764259999385,6.0,2.02347010000085,s,9.043038200004958,344.6466836999898,0.10338289999344852,0.11032890000205953,0.15198910000617616,0.15897079999558628,0.20059769999352284,0.20756270000129007,345.4313858999958,,,,,,,,,,,,,,,,,,,,,,,,,,,,,,,,,,,,,,,,,,,,,,,,,,,,,,,,,,,,,,,,,,,,,,,,,14,C,2023-12-08_14h45.49.715,gca_avoidance_task,2022.2.4,143.8317053892403,
,,,,,,,,,27,0,27,0,,,,,,,,,,,,,,,,,,,,,,,,,,,,,,,,,,,,,345.4313858999958,345.4313858999958,345.4313858999958,345.4313858999958,345.4313858999958,345.4313858999958,6.0,1.2765361000056146,s,7.426060099998722,353.38943270000163,0.10465720000502188,0.11158380001143087,0.15320080000674352,0.16020150000986177,0.20180940000864211,0.20876820001285523,,,,,,,,,,,,,,,,,,,,,,,,,,,,,,,,,,,,,,,,,,,,,,,,,,,,,,,,,,,,,,,,,,,,,,,,,,14,C,2023-12-08_14h45.49.715,gca_avoidance_task,2022.2.4,143.8317053892403,
,,,,,,,,,28,0,28,0,,,,,,,,,,,,,,,,,,,,,,,,,,,,,,,,,,,,,354.1532514999999,354.1532514999999,354.1532514999999,354.1532514999999,354.1532514999999,354.1532514999999,6.0,0.9216429999942193,s,5.688380900013726,360.36830249999184,0.10587430000305176,0.11280909999914002,0.1544620000058785,0.16142360000230838,0.20306840000557713,0.2100237999984529,,,,,,,,,,,,,,,,,,,,,,,,,,,,,,,,,,,,,,,,,,,,,,,,,,,,,,,,,,,,,,,,,,,,,,,,,,14,C,2023-12-08_14h45.49.715,gca_avoidance_task,2022.2.4,143.8317053892403,
,,,,,,,,,29,0,29,0,,,,,,,,,,,,,,,,,,,,,,,,,,,,,,,,,,,,,361.13215520000085,361.13215520000085,361.13215520000085,361.13215520000085,361.13215520000085,361.13215520000085,6.0,1.3938238999980967,s,6.900757099996554,368.56934000000183,0.1020791999908397,0.10903039999539033,0.15076639999460895,0.1576818000030471,0.19934209999337327,0.20629790000384673,369.3332158999983,,,,,,,,,,,,,,,,,,,,,,,,,,,,,,,,,,,,,,,,,,,,,,,,,,,,,,,,,,,,,,,,,,,,,,,,,14,C,2023-12-08_14h45.49.715,gca_avoidance_task,2022.2.4,143.8317053892403,
,,,,,,,,,30,0,30,0,,,,,,,,,,,,,,,,,,,,,,,,,,,,,,,,,,,,,369.3332158999983,369.3332158999983,369.3332158999983,369.3332158999983,369.3332158999983,369.3332158999983,7.0,1.039459599996917,s,5.932066900000791,375.7843692000024,0.10130280000157654,0.10823230000096373,0.1498970999964513,0.1568635000003269,0.2054367000091588,0.21240010000474285,376.54821919999085,,,,,,,,,,,,,,,,,,,,,,,,,,,,,,,,,,,,,,,,,,,,,,,,,,,,,,,,,,,,,,,,,,,,,,,,,14,C,2023-12-08_14h45.49.715,gca_avoidance_task,2022.2.4,143.8317053892403,
,,,,,,,,,31,0,31,0,,,,,,,,,,,,,,,,,,,,,,,,,,,,,,,,,,,,,376.54821919999085,376.54821919999085,376.54821919999085,376.54821919999085,376.54821919999085,376.54821919999085,7.0,1.7611355999979423,s,5.812915000002249,382.9021119999961,0.10427320000599138,0.11125479999464005,0.1528759000066202,0.1597918000043137,0.20150740000826772,0.20842540000739973,,,,,,,,,,,,,,,,,,,,,,,,,,,,,,,,,,,,,,,,,,,,,,,,,,,,,,,,,,,,,,,,,,,,,,,,,,14,C,2023-12-08_14h45.49.715,gca_avoidance_task,2022.2.4,143.8317053892403,
,,,,,,,,,32,0,32,0,,,,,,,,,,,,,,,,,,,,,,,,,,,,,,,,,,,,,383.6729648999899,383.6729648999899,383.6729648999899,383.6729648999899,383.6729648999899,383.6729648999899,6.0,16.758302200003527,s,24.22449090000009,408.4150195999973,0.10527660000661854,0.11226110000279732,0.15386540000326931,0.16084150000824593,0.20252600000821985,0.20946030000050087,,,,,,,,,,,,,,,,,,,,,,,,,,,,,,,,,,,,,,,,,,,,,,,,,,,,,,,,,,,,,,,,,,,,,,,,,,14,C,2023-12-08_14h45.49.715,gca_avoidance_task,2022.2.4,143.8317053892403,
,,,,,,,,,33,0,33,0,,,,,,,,,,,,,,,,,,,,,,,,,,,,,,,,,,,,,409.1788677000004,409.1788677000004,409.1788677000004,409.1788677000004,409.1788677000004,409.1788677000004,6.0,0.9500639999896521,s,12.318259100007708,422.01861679999274,0.10460550000425428,0.11154530000931118,0.1532089999964228,0.1602024000021629,0.2018028000020422,0.20878129999618977,,,,,,,,,,,,,,,,,,,,,,,,,,,,,,,,,,,,,,,,,,,,,,,,,,,,,,,,,,,,,,,,,,,,,,,,,,14,C,2023-12-08_14h45.49.715,gca_avoidance_task,2022.2.4,143.8317053892403,
,,,,,,,,,34,0,34,0,,,,,,,,,,,,,,,,,,,,,,,,,,,,,,,,,,,,,422.77550779999,422.77550779999,422.77550779999,422.77550779999,422.77550779999,422.77550779999,None,None,g,3.337512099999003,426.62959669998963,,,,,,,,,,,,,,,,,,,,,,,,,,,,,,,,,,,,,,,,,,,,,,,,,,,,,,,,,,,,,,,,,,,,,,,,,,,,,,,,14,C,2023-12-08_14h45.49.715,gca_avoidance_task,2022.2.4,143.8317053892403,
,,,,,,,,,,,,,,,,,,,,,,,,,,,,,,,,,,,,,,,,,,,,,,,,,,,,,,,,,,,,,,,,,,,426.62959669998963,426.62959669998963,space,1.7154287000012118,,,,,,,,,,,,,,,,,,,,,,,,,,,,,,,,,,,,,,,,,,,,,,,,,,,,,,,,,,,,,,,,,,,,,14,C,2023-12-08_14h45.49.715,gca_avoidance_task,2022.2.4,143.8317053892403,
positions.xlsx,stimuli.xlsx,stimuli/Social1.png,stimuli/Social2.png,stimuli/Nonsocial2.png,stimuli/Nonsocial1.png,cs_minus_s,,,,,,,0,0,0,0,0,0,0,2,,,,,,,,,,,,,,,,,,,,,,,,,,,,,,,,,,,,,,,,,,,,,,,,,,,523.5903729999991,523.5903729999991,space,28.099203799996758,551.7357227999892,551.7357227999892,560.1798510999943,5.0,8.438257100002375,space,2.60579410000355,,,,,,,,,,,,,,,,,,,,,,,,,,,,,,,,,,,,,,,,,,,,,,,,,,,,,,,,,,14,C,2023-12-08_14h45.49.715,gca_avoidance_task,2022.2.4,143.8317053892403,
positions.xlsx,stimuli.xlsx,stimuli/Social1.png,stimuli/Social2.png,stimuli/Nonsocial2.png,stimuli/Nonsocial1.png,cs_plus_ns,,,,,,,0,0,0,0,0,1,1,1,,,,,,,,,,,,,,,,,,,,,,,,,,,,,,,,,,,,,,,,,,,,,,,,,,,,,,,562.8255340999895,562.8255340999895,566.85313399999,7.0,4.018310499988729,space,1.2836985000030836,,,,,,,,,,,,,,,,,,,,,,,,,,,,,,,,,,,,,,,,,,,,,,,,,,,,,,,,,,14,C,2023-12-08_14h45.49.715,gca_avoidance_task,2022.2.4,143.8317053892403,
positions.xlsx,stimuli.xlsx,stimuli/Social1.png,stimuli/Social2.png,stimuli/Nonsocial2.png,stimuli/Nonsocial1.png,cs_minus_ns,,,,,,,0,0,0,0,0,2,2,3,,,,,,,,,,,,,,,,,,,,,,,,,,,,,,,,,,,,,,,,,,,,,,,,,,,,,,,568.1656856999907,568.1656856999907,572.0335563999979,7.0,3.860321700005443,space,0.6079889000102412,,,,,,,,,,,,,,,,,,,,,,,,,,,,,,,,,,,,,,,,,,,,,,,,,,,,,,,,,,14,C,2023-12-08_14h45.49.715,gca_avoidance_task,2022.2.4,143.8317053892403,
positions.xlsx,stimuli.xlsx,stimuli/Social1.png,stimuli/Social2.png,stimuli/Nonsocial2.png,stimuli/Nonsocial1.png,cs_plus_s,,,,,,,0,0,0,0,0,3,3,0,,,,,,,,,,,,,,,,,,,,,,,,,,,,,,,,,,,,,,,,,,,,,,,,,,,,,,,572.6793432999984,572.6793432999984,575.3320373000024,3.0,2.645812599992496,space,0.2855118000006769,,,,,,,,,,,,,,,,,,,,,,,,,,,,,,,,,,,,,,,,,,,,,,,,,,,,,,,,,,14,C,2023-12-08_14h45.49.715,gca_avoidance_task,2022.2.4,143.8317053892403,
positions.xlsx,stimuli.xlsx,stimuli/Social1.png,stimuli/Social2.png,stimuli/Nonsocial2.png,stimuli/Nonsocial1.png,,"(-0.7, -0.5)",cs_plus_ns,,,,,0,0,0,0,,,,,0,0,0,9,,,,,,,,,,,,,,,,,,,,,,,,,,,,,,,,,,,,,,,,,,,,,,,,,,,,,,,,,,575.6305954999989,575.6305954999989,space,17.827397300003213,596.358951000002,598.1852488000004,595.8590044000011,598.1852488000004,598.1852488000004,598.1852488000004,0.015338700002757832,0.020001099997898564,0,shock,1,[0.17389659999753349],[0.17391529999440536],598.3658192000003,598.3658192000003,0.0164500999962911,0.0164500999962911,0.02517769999394659,0.05292600000393577,0.05987729999469593,0.10152369999559596,0.10846899999887682,1.011226100003114,601.8518588000006,606.2127490999992,,,,,,,,,,,,,,,,,,,,,,,,,,,,,14,C,2023-12-08_14h45.49.715,gca_avoidance_task,2022.2.4,143.8317053892403,
positions.xlsx,stimuli.xlsx,stimuli/Social1.png,stimuli/Social2.png,stimuli/Nonsocial2.png,stimuli/Nonsocial1.png,,"(0.7, 0.5)",cs_plus_ns,,,,,0,0,0,0,,,,,0,1,1,10,,,,,,,,,,,,,,,,,,,,,,,,,,,,,,,,,,,,,,,,,,,,,,,,,,,,,,,,,,,,,,606.7196397999942,608.4904188999935,606.2127490999992,608.4904188999935,608.4904188999935,608.4904188999935,0.007761300003039651,0.013127600002917461,0,shock,1,[0.22239409999747295],[0.22239779999654274],608.7195440999931,608.7195440999931,0.00803559999621939,0.00803559999621939,0.01858469999569934,0.05323169998882804,0.06020609999541193,0.10188499999640044,0.10883849998936057,1.004612899996573,612.2125495999935,615.7540713999915,,,,,,,,,,,,,,,,,,,,,,,,,,,,,14,C,2023-12-08_14h45.49.715,gca_avoidance_task,2022.2.4,143.8317053892403,
positions.xlsx,stimuli.xlsx,stimuli/Social1.png,stimuli/Social2.png,stimuli/Nonsocial2.png,stimuli/Nonsocial1.png,,"(-0.7, -0.5)",cs_minus_s,,,,,0,0,0,0,,,,,0,2,2,5,,,,,,,,,,,,,,,,,,,,,,,,,,,,,,,,,,,,,,,,,,,,,,,,,,,,,,,,,,,,,,616.2609162000008,617.594244699998,615.7540713999915,617.594244699998,617.594244699998,617.594244699998,0.006540000002132729,0.013220799999544397,5,reward,1,[0.2500715000060154],[0.25007490000280086],617.8511909999943,617.8511909999943,0.007164700000430457,0.007164700000430457,0.01899139999295585,0.05366419999336358,0.06062410000595264,0.10233290000178386,0.10924160000286065,1.0049737999943318,621.3441411999956,625.7189300999889,,,,,,,,,,,,,,,,,,,,,,,,,,,,,14,C,2023-12-08_14h45.49.715,gca_avoidance_task,2022.2.4,143.8317053892403,
positions.xlsx,stimuli.xlsx,stimuli/Social1.png,stimuli/Social2.png,stimuli/Nonsocial2.png,stimuli/Nonsocial1.png,,"(-0.7, 0.5)",cs_plus_s,,,,,0,0,0,0,,,,,0,3,3,0,,,,,,,,,,,,,,,,,,,,,,,,,,,,,,,,,,,,,,,,,,,,,,,,,,,,,,,,,,,,,,626.2258169999986,627.8160171999916,625.7189300999889,627.8160171999916,627.8160171999916,627.8160171999916,0.0060058999952161685,0.013007900008233264,5,shock,1,[0.3333462000009604],[0.3333496999985073],628.1563033999992,628.1563033999992,0.007142500006011687,0.007142500006011687,0.018434600002365187,0.053126099999644794,0.060073800006648526,0.10175500001059845,0.10868230000778567,1.004446300008567,631.6492814999947,635.5032680000004,,,,,,,,,,,,,,,,,,,,,,,,,,,,,14,C,2023-12-08_14h45.49.715,gca_avoidance_task,2022.2.4,143.8317053892403,
positions.xlsx,stimuli.xlsx,stimuli/Social1.png,stimuli/Social2.png,stimuli/Nonsocial2.png,stimuli/Nonsocial1.png,,"(-0.7, 0.5)",cs_minus_s,,,,,0,0,0,0,,,,,0,4,4,4,,,,,,,,,,,,,,,,,,,,,,,,,,,,,,,,,,,,,,,,,,,,,,,,,,,,,,,,,,,,,,636.0101383000001,637.2670605999883,635.5032680000004,637.2670605999883,637.2670605999883,637.2670605999883,0.006220700000994839,0.01286909999907948,10,reward,1,[0.2428890000010142],[0.2428924999985611],637.5170452999882,637.5170452999882,0.006853300001239404,0.006853300001239404,0.018554199996287934,0.0532418999937363,0.06016680000175256,0.10182840000197757,0.10877629999595229,1.004559099994367,641.0099722000014,645.016772899995,,,,,,,,,,,,,,,,,,,,,,,,,,,,,14,C,2023-12-08_14h45.49.715,gca_avoidance_task,2022.2.4,143.8317053892403,
positions.xlsx,stimuli.xlsx,stimuli/Social1.png,stimuli/Social2.png,stimuli/Nonsocial2.png,stimuli/Nonsocial1.png,,"(-0.7, 0.5)",cs_plus_ns,,,,,0,0,0,0,,,,,0,5,5,8,,,,,,,,,,,,,,,,,,,,,,,,,,,,,,,,,,,,,,,,,,,,,,,,,,,,,,,,,,,,,,645.5236888999934,647.2527511999942,645.016772899995,647.2527511999942,647.2527511999942,647.2527511999942,0.00706210000498686,0.01295889999892097,10,none,0,,,652.2595128999965,652.2595128999965,0.013934600006905384,0.013934600006905384,0.019756000008783303,0.05440500000258908,0.061409400004777126,0.10302130000491161,0.11001600000599865,1.0126848000072641,655.7524866000022,659.4814420999901,,,,,,,,,,,,,,,,,,,,,,,,,,,,,14,C,2023-12-08_14h45.49.715,gca_avoidance_task,2022.2.4,143.8317053892403,
positions.xlsx,stimuli.xlsx,stimuli/Social1.png,stimuli/Social2.png,stimuli/Nonsocial2.png,stimuli/Nonsocial1.png,,"(-0.7, -0.5)",cs_plus_s,,,,,0,0,0,0,,,,,0,6,6,1,,,,,,,,,,,,,,,,,,,,,,,,,,,,,,,,,,,,,,,,,,,,,,,,,,,,,,,,,,,,,,659.9883528999926,661.8424715000001,659.4814420999901,661.8424715000001,661.8424715000001,661.8424715000001,0.006330600008368492,0.013037299999268726,10,shock,1,[1.6665597000101116],[1.6665655000106199],663.5160340000002,663.5160340000002,0.008067099988693371,0.008067099988693371,0.01884799999243114,0.053443599987076595,0.060458899999503046,0.10213109999313019,0.10910839999269228,1.0048690999974497,667.0089827999909,671.4185018999997,,,,,,,,,,,,,,,,,,,,,,,,,,,,,14,C,2023-12-08_14h45.49.715,gca_avoidance_task,2022.2.4,143.8317053892403,
positions.xlsx,stimuli.xlsx,stimuli/Social1.png,stimuli/Social2.png,stimuli/Nonsocial2.png,stimuli/Nonsocial1.png,,"(0.7, 0.5)",cs_minus_s,,,,,0,0,0,0,,,,,0,7,7,6,,,,,,,,,,,,,,,,,,,,,,,,,,,,,,,,,,,,,,,,,,,,,,,,,,,,,,,,,,,,,,671.9254165999882,673.1336701999971,671.4185018999997,673.1336701999971,673.1336701999971,673.1336701999971,0.006823300005635247,0.013170900012482889,15,reward,1,[0.4380156000115676],[0.4380197999998927],673.5781031999941,673.5781031999941,0.008597299995017238,0.008597299995017238,0.018495299998903647,0.05316929999389686,0.06008359999395907,0.10175499999604654,0.1087169999955222,1.0044694999960484,677.071045699995,680.723702999996,,,,,,,,,,,,,,,,,,,,,,,,,,,,,14,C,2023-12-08_14h45.49.715,gca_avoidance_task,2022.2.4,143.8317053892403,
positions.xlsx,stimuli.xlsx,stimuli/Social1.png,stimuli/Social2.png,stimuli/Nonsocial2.png,stimuli/Nonsocial1.png,,"(0.7, 0.5)",cs_minus_ns,,,,,0,0,0,0,,,,,0,8,8,14,,,,,,,,,,,,,,,,,,,,,,,,,,,,,,,,,,,,,,,,,,,,,,,,,,,,,,,,,,,,,,681.2305741000018,682.793021999998,680.723702999996,682.793021999998,682.793021999998,682.793021999998,0.007850299996789545,0.013141100003849715,15,none,0,,,687.7997826999926,687.7997826999926,0.014180900005158037,0.014180900005158037,0.019965900006354786,0.0546396999998251,0.06162550000590272,0.10318879999977071,0.11019530000339728,1.0128535999974702,691.2926857999992,695.014806799998,,,,,,,,,,,,,,,,,,,,,,,,,,,,,14,C,2023-12-08_14h45.49.715,gca_avoidance_task,2022.2.4,143.8317053892403,
positions.xlsx,stimuli.xlsx,stimuli/Social1.png,stimuli/Social2.png,stimuli/Nonsocial2.png,stimuli/Nonsocial1.png,,"(0.7, -0.5)",cs_plus_s,,,,,0,0,0,0,,,,,0,9,9,3,,,,,,,,,,,,,,,,,,,,,,,,,,,,,,,,,,,,,,,,,,,,,,,,,,,,,,,,,,,,,,695.5217008999898,696.8271895999933,695.014806799998,696.8271895999933,696.8271895999933,696.8271895999933,0.006649700007983483,0.012642900008358993,15,shock,1,[0.31204340000113007],[0.3120467999979155],697.1397060000018,697.1397060000018,0.006959700011066161,0.006959700011066161,0.011652600005618297,0.05322690001048613,0.060194600009708665,0.10184480001043994,0.10880300001008436,1.004689800000051,700.6395518999925,705.0004940999934,,,,,,,,,,,,,,,,,,,,,,,,,,,,,14,C,2023-12-08_14h45.49.715,gca_avoidance_task,2022.2.4,143.8317053892403,
positions.xlsx,stimuli.xlsx,stimuli/Social1.png,stimuli/Social2.png,stimuli/Nonsocial2.png,stimuli/Nonsocial1.png,,"(0.7, -0.5)",cs_minus_ns,,,,,0,0,0,0,,,,,0,10,10,15,,,,,,,,,,,,,,,,,,,,,,,,,,,,,,,,,,,,,,,,,,,,,,,,,,,,,,,,,,,,,,705.5073869999906,707.4378610999993,705.0004940999934,707.4378610999993,707.4378610999993,707.4378610999993,0.007288299995707348,0.013222900000982918,15,none,0,,,712.4446396999992,712.4446396999992,0.014433999996981584,0.014433999996981584,0.019978700001956895,0.05464439999195747,0.061635399993974715,0.10323239999706857,0.11020219999772962,1.012960899999598,715.9375618999911,720.2568909999973,,,,,,,,,,,,,,,,,,,,,,,,,,,,,14,C,2023-12-08_14h45.49.715,gca_avoidance_task,2022.2.4,143.8317053892403,
positions.xlsx,stimuli.xlsx,stimuli/Social1.png,stimuli/Social2.png,stimuli/Nonsocial2.png,stimuli/Nonsocial1.png,,"(-0.7, -0.5)",cs_minus_ns,,,,,0,0,0,0,,,,,0,11,11,13,,,,,,,,,,,,,,,,,,,,,,,,,,,,,,,,,,,,,,,,,,,,,,,,,,,,,,,,,,,,,,720.7637276999885,722.6872576999885,720.2568909999973,722.6872576999885,722.6872576999885,722.6872576999885,0.006824700001743622,0.012993500000447966,15,none,0,,,727.6939999999886,727.6939999999886,0.014029500001925044,0.014029500001925044,0.01974960000370629,0.054439300001831725,0.061395400000037625,0.10303840000415221,0.10999110000557266,1.0127260000008391,731.187007200002,734.78404459999,,,,,,,,,,,,,,,,,,,,,,,,,,,,,14,C,2023-12-08_14h45.49.715,gca_avoidance_task,2022.2.4,143.8317053892403,
positions.xlsx,stimuli.xlsx,stimuli/Social1.png,stimuli/Social2.png,stimuli/Nonsocial2.png,stimuli/Nonsocial1.png,,"(0.7, -0.5)",cs_plus_ns,,,,,0,0,0,0,,,,,0,12,12,11,,,,,,,,,,,,,,,,,,,,,,,,,,,,,,,,,,,,,,,,,,,,,,,,,,,,,,,,,,,,,,735.2909275999991,736.4089340999926,734.78404459999,736.4089340999926,736.4089340999926,736.4089340999926,0.007400999995297752,0.013262599997688085,15,none,0,,,741.4157043000014,741.4157043000014,0.015469100006157532,0.015469100006157532,0.020012499997392297,0.05470950000744779,0.06167730000743177,0.10334169999987353,0.11026159999892116,1.0129833999963012,744.9086220999889,749.4015762999916,,,,,,,,,,,,,,,,,,,,,,,,,,,,,14,C,2023-12-08_14h45.49.715,gca_avoidance_task,2022.2.4,143.8317053892403,
positions.xlsx,stimuli.xlsx,stimuli/Social1.png,stimuli/Social2.png,stimuli/Nonsocial2.png,stimuli/Nonsocial1.png,,"(0.7, 0.5)",cs_plus_s,,,,,0,0,0,0,,,,,0,13,13,2,,,,,,,,,,,,,,,,,,,,,,,,,,,,,,,,,,,,,,,,,,,,,,,,,,,,,,,,,,,,,,749.9084104999929,751.4083673999994,749.4015762999916,751.4083673999994,751.4083673999994,751.4083673999994,0.00630500000261236,0.013156500004697591,15,none,0,,,756.4150910999888,756.4150910999888,0.012858500005677342,0.012858500005677342,0.019902800006093457,0.054570299995248206,0.06154549999337178,0.10314789999392815,0.11012559999653604,1.0129016999999294,759.9080083000008,764.0189831999887,,,,,,,,,,,,,,,,,,,,,,,,,,,,,14,C,2023-12-08_14h45.49.715,gca_avoidance_task,2022.2.4,143.8317053892403,
positions.xlsx,stimuli.xlsx,stimuli/Social1.png,stimuli/Social2.png,stimuli/Nonsocial2.png,stimuli/Nonsocial1.png,,"(-0.7, 0.5)",cs_minus_ns,,,,,0,0,0,0,,,,,0,14,14,12,,,,,,,,,,,,,,,,,,,,,,,,,,,,,,,,,,,,,,,,,,,,,,,,,,,,,,,,,,,,,,764.5258813999972,766.4424522999907,764.0189831999887,766.4424522999907,766.4424522999907,766.4424522999907,0.006919200008269399,0.013365699996938929,15,none,0,,,771.4491767,771.4491767,0.015367600004537962,0.015367600004537962,0.020103500006371178,0.05480820000229869,0.06182519999856595,0.10345219999726396,0.1103793000074802,1.013145800010534,774.9421676999918,778.4558977999986,,,,,,,,,,,,,,,,,,,,,,,,,,,,,14,C,2023-12-08_14h45.49.715,gca_avoidance_task,2022.2.4,143.8317053892403,
positions.xlsx,stimuli.xlsx,stimuli/Social1.png,stimuli/Social2.png,stimuli/Nonsocial2.png,stimuli/Nonsocial1.png,,"(0.7, -0.5)",cs_minus_s,,,,,0,0,0,0,,,,,0,15,15,7,,,,,,,,,,,,,,,,,,,,,,,,,,,,,,,,,,,,,,,,,,,,,,,,,,,,,,,,,,,,,,778.9628624999896,780.7475271000003,778.4558977999986,780.7475271000003,780.7475271000003,780.7475271000003,0.005639399998472072,0.013209700002335012,20,reward,1,[0.4585112000058871],[0.4585150000057183],781.2126960999885,781.2126960999885,0.007029000000329688,0.007029000000329688,0.018563699995866045,0.053222799993818626,0.060219599996344186,0.10184420000587124,0.10879040000145324,1.0045724999945378,784.7056379999995,789.0110702999955,,,,,,,,,,,,,,,,,,,,,,,,,,,,,14,C,2023-12-08_14h45.49.715,gca_avoidance_task,2022.2.4,143.8317053892403,
positions.xlsx,stimuli.xlsx,stimuli/Social1.png,stimuli/Social2.png,stimuli/Nonsocial2.png,stimuli/Nonsocial1.png,,"(0.7, -0.5)",cs_plus_ns,,,,,0,0,0,0,,,,,1,0,16,11,,,,,,,,,,,,,,,,,,,,,,,,,,,,,,,,,,,,,,,,,,,,,,,,,,,,,,,,,,,,,,789.5179542999977,791.2887379000022,789.0110702999955,791.2887379000022,791.2887379000022,791.2887379000022,0.006586200004676357,0.013084400008665398,20,none,0,,,796.2954453999992,796.2954453999992,0.013489300006767735,0.013489300006767735,0.019757500005653128,0.054463200009195134,0.061428800006979145,0.10304339999856893,0.11004090000642464,1.0127283000038005,799.788435800001,803.7327249999944,,,,,,,,,,,,,,,,,,,,,,,,,,,,,14,C,2023-12-08_14h45.49.715,gca_avoidance_task,2022.2.4,143.8317053892403,
positions.xlsx,stimuli.xlsx,stimuli/Social1.png,stimuli/Social2.png,stimuli/Nonsocial2.png,stimuli/Nonsocial1.png,,"(-0.7, -0.5)",cs_minus_ns,,,,,0,0,0,0,,,,,1,1,17,13,,,,,,,,,,,,,,,,,,,,,,,,,,,,,,,,,,,,,,,,,,,,,,,,,,,,,,,,,,,,,,804.2395821999962,805.7464608000009,803.7327249999944,805.7464608000009,805.7464608000009,805.7464608000009,0.0066319000034127384,0.013053200003923848,20,none,0,,,810.7531975999882,810.7531975999882,0.013861600004020147,0.013861600004020147,0.019796099993982352,0.05451429999084212,0.06145510000351351,0.10312980000162497,0.11004410000168718,1.01282249999349,814.2461348999932,818.6140770999918,,,,,,,,,,,,,,,,,,,,,,,,,,,,,14,C,2023-12-08_14h45.49.715,gca_avoidance_task,2022.2.4,143.8317053892403,
positions.xlsx,stimuli.xlsx,stimuli/Social1.png,stimuli/Social2.png,stimuli/Nonsocial2.png,stimuli/Nonsocial1.png,,"(-0.7, -0.5)",cs_plus_ns,,,,,0,0,0,0,,,,,1,2,18,9,,,,,,,,,,,,,,,,,,,,,,,,,,,,,,,,,,,,,,,,,,,,,,,,,,,,,,,,,,,,,,819.1209986999893,820.8847448000015,818.6140770999918,820.8847448000015,820.8847448000015,820.8847448000015,0.006359400009387173,0.01341070000489708,20,none,0,,,825.8915016999963,825.8915016999963,0.014403799999854527,0.014403799999854527,0.020172300006379373,0.05487760000687558,0.06180520000634715,0.10346040000149515,0.11044519999995828,1.0131610999960685,829.3844494999939,833.0023769999971,,,,,,,,,,,,,,,,,,,,,,,,,,,,,14,C,2023-12-08_14h45.49.715,gca_avoidance_task,2022.2.4,143.8317053892403,
positions.xlsx,stimuli.xlsx,stimuli/Social1.png,stimuli/Social2.png,stimuli/Nonsocial2.png,stimuli/Nonsocial1.png,,"(0.7, -0.5)",cs_minus_ns,,,,,0,0,0,0,,,,,1,3,19,15,,,,,,,,,,,,,,,,,,,,,,,,,,,,,,,,,,,,,,,,,,,,,,,,,,,,,,,,,,,,,,833.5092293999915,834.8703029999888,833.0023769999971,834.8703029999888,834.8703029999888,834.8703029999888,0.006510299994261004,0.013018400000873953,20,none,0,,,839.8770727999945,839.8770727999945,0.01418040000135079,0.01418040000135079,0.019832299993140623,0.05445989999861922,0.06143809999048244,0.1030863999912981,0.11002100000041537,1.0127403999940725,843.3699746999919,847.1754455999908,,,,,,,,,,,,,,,,,,,,,,,,,,,,,14,C,2023-12-08_14h45.49.715,gca_avoidance_task,2022.2.4,143.8317053892403,
positions.xlsx,stimuli.xlsx,stimuli/Social1.png,stimuli/Social2.png,stimuli/Nonsocial2.png,stimuli/Nonsocial1.png,,"(0.7, -0.5)",cs_minus_s,,,,,0,0,0,0,,,,,1,4,20,7,,,,,,,,,,,,,,,,,,,,,,,,,,,,,,,,,,,,,,,,,,,,,,,,,,,,,,,,,,,,,,847.6823081999901,849.2933489999996,847.1754455999908,849.2933489999996,849.2933489999996,849.2933489999996,0.005874299997230992,0.013028000001213513,25,reward,1,[0.43052629999874625],[0.4305298999970546],849.7308482999942,849.7308482999942,0.0066540999978315085,0.0066540999978315085,0.018465600005583838,0.0531673000077717,0.06011400000716094,0.10173520000535063,0.10877220000838861,1.0044922999950359,853.2238211999938,856.7861782999971,,,,,,,,,,,,,,,,,,,,,,,,,,,,,14,C,2023-12-08_14h45.49.715,gca_avoidance_task,2022.2.4,143.8317053892403,
positions.xlsx,stimuli.xlsx,stimuli/Social1.png,stimuli/Social2.png,stimuli/Nonsocial2.png,stimuli/Nonsocial1.png,,"(0.7, 0.5)",cs_minus_s,,,,,0,0,0,0,,,,,1,5,21,6,,,,,,,,,,,,,,,,,,,,,,,,,,,,,,,,,,,,,,,,,,,,,,,,,,,,,,,,,,,,,,857.2930094999901,859.1679592,856.7861782999971,859.1679592,859.1679592,859.1679592,0.005812500006868504,0.013203499998780899,30,reward,1,[0.5625978000025498],[0.5626015000016196],859.737380999999,859.737380999999,0.006997699994826689,0.006997699994826689,0.01848680000694003,0.05312890000641346,0.060069400002248585,0.10171650000847876,0.10878090000187512,1.0044773999979952,863.2303608999937,866.9524411999882,,,,,,,,,,,,,,,,,,,,,,,,,,,,,14,C,2023-12-08_14h45.49.715,gca_avoidance_task,2022.2.4,143.8317053892403,
positions.xlsx,stimuli.xlsx,stimuli/Social1.png,stimuli/Social2.png,stimuli/Nonsocial2.png,stimuli/Nonsocial1.png,,"(-0.7, 0.5)",cs_minus_s,,,,,0,0,0,0,,,,,1,6,22,4,,,,,,,,,,,,,,,,,,,,,,,,,,,,,,,,,,,,,,,,,,,,,,,,,,,,,,,,,,,,,,867.4592915999965,869.2231364999898,866.9524411999882,869.2231364999898,869.2231364999898,869.2231364999898,0.006349999996018596,0.01338259999465663,35,reward,1,[0.4589617999881739],[0.45896609999181237],869.6883743999933,869.6883743999933,0.007244199994602241,0.007244199994602241,0.017948599997907877,0.052639100002124906,0.05957549999584444,0.10123059999023098,0.10822909999114927,1.004037699996843,873.1813294000021,877.3548071999976,,,,,,,,,,,,,,,,,,,,,,,,,,,,,14,C,2023-12-08_14h45.49.715,gca_avoidance_task,2022.2.4,143.8317053892403,
positions.xlsx,stimuli.xlsx,stimuli/Social1.png,stimuli/Social2.png,stimuli/Nonsocial2.png,stimuli/Nonsocial1.png,,"(0.7, 0.5)",cs_plus_ns,,,,,0,0,0,0,,,,,1,7,23,10,,,,,,,,,,,,,,,,,,,,,,,,,,,,,,,,,,,,,,,,,,,,,,,,,,,,,,,,,,,,,,877.8616952000011,879.4171632999933,877.3548071999976,879.4171632999933,879.4171632999933,879.4171632999933,0.007270000001881272,0.013242700006230734,35,none,0,,,884.4238790999952,884.4238790999952,0.01388270000461489,0.01388270000461489,0.01999289999366738,0.05465299999923445,0.06162550000590272,0.103275700006634,0.1102147000055993,1.013022800005274,887.9168945999991,891.7083865000022,,,,,,,,,,,,,,,,,,,,,,,,,,,,,14,C,2023-12-08_14h45.49.715,gca_avoidance_task,2022.2.4,143.8317053892403,
positions.xlsx,stimuli.xlsx,stimuli/Social1.png,stimuli/Social2.png,stimuli/Nonsocial2.png,stimuli/Nonsocial1.png,,"(-0.7, 0.5)",cs_minus_ns,,,,,0,0,0,0,,,,,1,8,24,12,,,,,,,,,,,,,,,,,,,,,,,,,,,,,,,,,,,,,,,,,,,,,,,,,,,,,,,,,,,,,,892.215256800002,893.9582648999931,891.7083865000022,893.9582648999931,893.9582648999931,893.9582648999931,0.008084499990218319,0.01317439999547787,35,none,0,,,898.9650237000023,898.9650237000023,0.014998499987996183,0.014998499987996183,0.01995959998748731,0.05462769999576267,0.06152489999658428,0.10322509999969043,0.11018899999908172,1.0129320999985794,902.457997599995,906.700860500001,,,,,,,,,,,,,,,,,,,,,,,,,,,,,14,C,2023-12-08_14h45.49.715,gca_avoidance_task,2022.2.4,143.8317053892403,
positions.xlsx,stimuli.xlsx,stimuli/Social1.png,stimuli/Social2.png,stimuli/Nonsocial2.png,stimuli/Nonsocial1.png,,"(-0.7, -0.5)",cs_minus_s,,,,,0,0,0,0,,,,,1,9,25,5,,,,,,,,,,,,,,,,,,,,,,,,,,,,,,,,,,,,,,,,,,,,,,,,,,,,,,,,,,,,,,907.2076989999914,908.3882179999928,906.700860500001,908.3882179999928,908.3882179999928,908.3882179999928,0.007177100007538684,0.013339500001166016,40,reward,1,[0.41697690000000875],[0.41698069999984],908.811847399993,908.811847399993,0.007207100003142841,0.007207100003142841,0.01833049999549985,0.05300169999827631,0.05999930000689346,0.10163530000136234,0.10858280000684317,1.0043748000025516,912.3047687999933,916.7976586000004,,,,,,,,,,,,,,,,,,,,,,,,,,,,,14,C,2023-12-08_14h45.49.715,gca_avoidance_task,2022.2.4,143.8317053892403,
positions.xlsx,stimuli.xlsx,stimuli/Social1.png,stimuli/Social2.png,stimuli/Nonsocial2.png,stimuli/Nonsocial1.png,,"(0.7, 0.5)",cs_minus_ns,,,,,0,0,0,0,,,,,1,10,26,14,,,,,,,,,,,,,,,,,,,,,,,,,,,,,,,,,,,,,,,,,,,,,,,,,,,,,,,,,,,,,,917.3045586999942,918.4989796000009,916.7976586000004,918.4989796000009,918.4989796000009,918.4989796000009,0.0073782999970717356,0.013022999992244877,40,none,0,,,923.5056867999956,923.5056867999956,0.014455199998337775,0.014455199998337775,0.019779700000071898,0.05445599999802653,0.06141169999318663,0.10304679999535438,0.11001889999897685,1.0127619999984745,926.9986637999973,931.2971167999931,,,,,,,,,,,,,,,,,,,,,,,,,,,,,14,C,2023-12-08_14h45.49.715,gca_avoidance_task,2022.2.4,143.8317053892403,
positions.xlsx,stimuli.xlsx,stimuli/Social1.png,stimuli/Social2.png,stimuli/Nonsocial2.png,stimuli/Nonsocial1.png,,"(-0.7, -0.5)",cs_plus_s,,,,,0,0,0,0,,,,,1,11,27,1,,,,,,,,,,,,,,,,,,,,,,,,,,,,,,,,,,,,,,,,,,,,,,,,,,,,,,,,,,,,,,931.8039930999948,933.1164329000021,931.2971167999931,933.1164329000021,933.1164329000021,933.1164329000021,0.005831700007547624,0.012918899999931455,40,none,0,,,938.1232304000005,938.1232304000005,0.013775600004009902,0.013775600004009902,0.01970620000793133,0.05438970000250265,0.06130180000036489,0.1029941000015242,0.10992340001394041,1.0126597000053152,941.6161558999884,945.2340532999951,,,,,,,,,,,,,,,,,,,,,,,,,,,,,14,C,2023-12-08_14h45.49.715,gca_avoidance_task,2022.2.4,143.8317053892403,
positions.xlsx,stimuli.xlsx,stimuli/Social1.png,stimuli/Social2.png,stimuli/Nonsocial2.png,stimuli/Nonsocial1.png,,"(0.7, 0.5)",cs_plus_s,,,,,0,0,0,0,,,,,1,12,28,2,,,,,,,,,,,,,,,,,,,,,,,,,,,,,,,,,,,,,,,,,,,,,,,,,,,,,,,,,,,,,,945.7409460999916,947.1505973000021,945.2340532999951,947.1505973000021,947.1505973000021,947.1505973000021,0.005962700000964105,0.013189200006308965,40,none,0,,,952.1573357000016,952.1573357000016,0.01385590000427328,0.01385590000427328,0.01997450001363177,0.054639200010569766,0.06161140000040177,0.1032592000119621,0.11024710000492632,1.0129629000002751,955.6503018999938,959.2265681999997,,,,,,,,,,,,,,,,,,,,,,,,,,,,,14,C,2023-12-08_14h45.49.715,gca_avoidance_task,2022.2.4,143.8317053892403,
positions.xlsx,stimuli.xlsx,stimuli/Social1.png,stimuli/Social2.png,stimuli/Nonsocial2.png,stimuli/Nonsocial1.png,,"(-0.7, 0.5)",cs_plus_ns,,,,,0,0,0,0,,,,,1,13,29,8,,,,,,,,,,,,,,,,,,,,,,,,,,,,,,,,,,,,,,,,,,,,,,,,,,,,,,,,,,,,,,959.7334209999972,960.9903474000021,959.2265681999997,960.9903474000021,960.9903474000021,960.9903474000021,0.006970100002945401,0.013105799996992573,40,none,0,,,965.9970627000002,965.9970627000002,0.013832600001478568,0.013832600001478568,0.0198956999956863,0.054574800000409596,0.061530999999376945,0.10314419999485835,0.11013679999450687,1.0128344999975525,969.4900614999933,973.8301557999948,,,,,,,,,,,,,,,,,,,,,,,,,,,,,14,C,2023-12-08_14h45.49.715,gca_avoidance_task,2022.2.4,143.8317053892403,
positions.xlsx,stimuli.xlsx,stimuli/Social1.png,stimuli/Social2.png,stimuli/Nonsocial2.png,stimuli/Nonsocial1.png,,"(-0.7, 0.5)",cs_plus_s,,,,,0,0,0,0,,,,,1,14,30,0,,,,,,,,,,,,,,,,,,,,,,,,,,,,,,,,,,,,,,,,,,,,,,,,,,,,,,,,,,,,,,974.3370479000005,975.5592000999895,973.8301557999948,975.5592000999895,975.5592000999895,975.5592000999895,0.006223799995495938,0.012759899997035973,40,none,0,,,980.5659798999986,980.5659798999986,0.013834299999871291,0.013834299999871291,0.019572799996240065,0.05421629999182187,0.06117719999747351,0.10285189999558497,0.10981460000039078,1.01249480000115,984.0588681999943,988.0240355999995,,,,,,,,,,,,,,,,,,,,,,,,,,,,,14,C,2023-12-08_14h45.49.715,gca_avoidance_task,2022.2.4,143.8317053892403,
positions.xlsx,stimuli.xlsx,stimuli/Social1.png,stimuli/Social2.png,stimuli/Nonsocial2.png,stimuli/Nonsocial1.png,,"(0.7, -0.5)",cs_plus_s,,,,,0,0,0,0,,,,,1,15,31,3,,,,,,,,,,,,,,,,,,,,,,,,,,,,,,,,,,,,,,,,,,,,,,,,,,,,,,,,,,,,,,988.530889799993,989.9822742999968,988.0240355999995,989.9822742999968,989.9822742999968,989.9822742999968,0.006542599992826581,0.01291809999383986,40,none,0,,,994.9889838999952,994.9889838999952,0.0131011000048602,0.0131011000048602,0.019634700001915917,0.05430750000232365,0.061287499993341044,0.10294139999314211,0.10987699999532197,1.0126132000004873,998.4819149999967,1002.245662699992,,,,,,,,,,,,,,,,,,,,,,,,,,,,,14,C,2023-12-08_14h45.49.715,gca_avoidance_task,2022.2.4,143.8317053892403,
positions.xlsx,stimuli.xlsx,stimuli/Social1.png,stimuli/Social2.png,stimuli/Nonsocial2.png,stimuli/Nonsocial1.png,,"(-0.7, -0.5)",cs_minus_s,,,,,0,0,0,0,,,,,,,,,0,0,0,5,,,,,,,,,,,,,,,,,,,,,,,,,,,,,,,,,,,,,,,,,,,,,,,,,,,,,,,,,,1023.7656201999926,1025.1822898999962,1023.2657124999969,1025.1822898999962,1025.1822898999962,1025.1822898999962,0.006178700001328252,0.013331099995411932,45,reward,1,[0.2920058000017889],[0.292009800003143],1025.480869799998,1025.480869799998,0.007482200002414174,0.007482200002414174,0.018161799991503358,0.05286019999766722,0.059820399997988716,0.10141740000108257,0.10840499999176245,1.0041946999990614,1028.9738396999892,1032.9320050999959,1002.245662699992,1002.245662699992,1002.245662699992,1002.245662699992,space,18.659356899996055,,,,,,,,,,,,,,,,,,,,,,,14,C,2023-12-08_14h45.49.715,gca_avoidance_task,2022.2.4,143.8317053892403,
positions.xlsx,stimuli.xlsx,stimuli/Social1.png,stimuli/Social2.png,stimuli/Nonsocial2.png,stimuli/Nonsocial1.png,,"(-0.7, 0.5)",cs_plus_s,,,,,0,0,0,0,,,,,,,,,0,1,1,0,,,,,,,,,,,,,,,,,,,,,,,,,,,,,,,,,,,,,,,,,,,,,,,,,,,,,,,,,,1033.4388848999952,1034.799941899997,1032.9320050999959,1034.799941899997,1034.799941899997,1034.799941899997,0.006659400009084493,0.013135600005625747,45,none,0,,,1039.8067023999902,1039.8067023999902,0.013460800008033402,0.013460800008033402,0.01991860000998713,0.05456270001013763,0.061528000005637296,0.10320140000840183,0.11013870000897441,1.0128856000083033,1043.2996727999998,1046.9869936999894,,,,,,,,,,,,,,,,,,,,,,,,,,,,,14,C,2023-12-08_14h45.49.715,gca_avoidance_task,2022.2.4,143.8317053892403,
positions.xlsx,stimuli.xlsx,stimuli/Social1.png,stimuli/Social2.png,stimuli/Nonsocial2.png,stimuli/Nonsocial1.png,,"(-0.7, 0.5)",cs_minus_s,,,,,0,0,0,0,,,,,,,,,0,2,2,4,,,,,,,,,,,,,,,,,,,,,,,,,,,,,,,,,,,,,,,,,,,,,,,,,,,,,,,,,,1047.4938483000005,1049.0910692999896,1046.9869936999894,1049.0910692999896,1049.0910692999896,1049.0910692999896,0.005891199994948693,0.01346489999559708,50,reward,1,[0.53577669999504],[0.5357806999963941],1049.6326733000024,1049.6326733000024,0.00787690001016017,0.00787690001016017,0.018131700009689666,0.05275950000213925,0.059719099997892044,0.10138700000243261,0.1083340000041062,1.0042095000098925,1053.1256577000022,1057.174064299994,,,,,,,,,,,,,,,,,,,,,,,,,,,,,14,C,2023-12-08_14h45.49.715,gca_avoidance_task,2022.2.4,143.8317053892403,
positions.xlsx,stimuli.xlsx,stimuli/Social1.png,stimuli/Social2.png,stimuli/Nonsocial2.png,stimuli/Nonsocial1.png,,"(0.7, -0.5)",cs_plus_ns,,,,,0,0,0,0,,,,,,,,,0,3,3,11,,,,,,,,,,,,,,,,,,,,,,,,,,,,,,,,,,,,,,,,,,,,,,,,,,,,,,,,,,1057.6809728999942,1059.2920012999966,1057.174064299994,1059.2920012999966,1059.2920012999966,1059.2920012999966,0.00659540000197012,0.01342550000117626,50,none,0,,,1064.298798399992,1064.298798399992,0.014117099999566562,0.014117099999566562,0.02020549999724608,0.054885499994270504,0.061824399992474355,0.10355600000184495,0.11046509999141563,1.0131687999964925,1067.791737099993,1071.9721485999908,,,,,,,,,,,,,,,,,,,,,,,,,,,,,14,C,2023-12-08_14h45.49.715,gca_avoidance_task,2022.2.4,143.8317053892403,
positions.xlsx,stimuli.xlsx,stimuli/Social1.png,stimuli/Social2.png,stimuli/Nonsocial2.png,stimuli/Nonsocial1.png,,"(-0.7, -0.5)",cs_plus_s,,,,,0,0,0,0,,,,,,,,,0,4,4,1,,,,,,,,,,,,,,,,,,,,,,,,,,,,,,,,,,,,,,,,,,,,,,,,,,,,,,,,,,1072.4790071999887,1073.9442654000013,1071.9721485999908,1073.9442654000013,1073.9442654000013,1073.9442654000013,0.006028499992680736,0.013141499992343597,50,none,0,,,1078.9509657000017,1078.9509657000017,0.013450399987050332,0.013450399987050332,0.019856899991282262,0.054563799989409745,0.06147589998727199,0.10315449998597614,0.1101205999875674,1.0128341999952681,1082.4439701999945,1086.3257187999989,,,,,,,,,,,,,,,,,,,,,,,,,,,,,14,C,2023-12-08_14h45.49.715,gca_avoidance_task,2022.2.4,143.8317053892403,
positions.xlsx,stimuli.xlsx,stimuli/Social1.png,stimuli/Social2.png,stimuli/Nonsocial2.png,stimuli/Nonsocial1.png,,"(-0.7, 0.5)",cs_minus_ns,,,,,0,0,0,0,,,,,,,,,0,5,5,12,,,,,,,,,,,,,,,,,,,,,,,,,,,,,,,,,,,,,,,,,,,,,,,,,,,,,,,,,,1086.832592199993,1088.0478507999942,1086.3257187999989,1088.0478507999942,1088.0478507999942,1088.0478507999942,0.006765400001313537,0.013132499996572733,50,none,0,,,1093.0546120999934,1093.0546120999934,0.0137449000030756,0.0137449000030756,0.019905699999071658,0.05459800000244286,0.061525900004198775,0.1031729000096675,0.11010250000981614,1.0128013000066858,1096.547579799997,1100.0821114999999,,,,,,,,,,,,,,,,,,,,,,,,,,,,,14,C,2023-12-08_14h45.49.715,gca_avoidance_task,2022.2.4,143.8317053892403,
positions.xlsx,stimuli.xlsx,stimuli/Social1.png,stimuli/Social2.png,stimuli/Nonsocial2.png,stimuli/Nonsocial1.png,,"(0.7, -0.5)",cs_minus_s,,,,,0,0,0,0,,,,,,,,,0,6,6,7,,,,,,,,,,,,,,,,,,,,,,,,,,,,,,,,,,,,,,,,,,,,,,,,,,,,,,,,,,1100.5890242000023,1101.825065500001,1100.0821114999999,1101.825065500001,1101.825065500001,1101.825065500001,0.00590570000349544,0.013348099993891083,55,reward,1,[0.35442740000144113],[0.3544312000012724],1102.1862089999922,1102.1862089999922,0.006860200010123663,0.006860200010123663,0.018851500004529953,0.05344090001017321,0.060398300003726035,0.10205420000420418,0.10898319999978412,1.0048061000125017,1105.6791336999886,1109.3109084999887,,,,,,,,,,,,,,,,,,,,,,,,,,,,,14,C,2023-12-08_14h45.49.715,gca_avoidance_task,2022.2.4,143.8317053892403,
positions.xlsx,stimuli.xlsx,stimuli/Social1.png,stimuli/Social2.png,stimuli/Nonsocial2.png,stimuli/Nonsocial1.png,,"(0.7, -0.5)",cs_minus_ns,,,,,0,0,0,0,,,,,,,,,0,7,7,15,,,,,,,,,,,,,,,,,,,,,,,,,,,,,,,,,,,,,,,,,,,,,,,,,,,,,,,,,,1109.8178484999953,1111.366364299989,1109.3109084999887,1111.366364299989,1111.366364299989,1111.366364299989,0.007295000003068708,0.01319879999209661,55,none,0,,,1116.3731523999886,1116.3731523999886,0.0141758999961894,0.0141758999961894,0.019952899994677864,0.05460750000202097,0.06156259999261238,0.10323049999715295,0.11017590000119526,1.012924099995871,1119.8661126999941,1124.3103478999983,,,,,,,,,,,,,,,,,,,,,,,,,,,,,14,C,2023-12-08_14h45.49.715,gca_avoidance_task,2022.2.4,143.8317053892403,
positions.xlsx,stimuli.xlsx,stimuli/Social1.png,stimuli/Social2.png,stimuli/Nonsocial2.png,stimuli/Nonsocial1.png,,"(0.7, 0.5)",cs_plus_ns,,,,,0,0,0,0,,,,,,,,,0,8,8,10,,,,,,,,,,,,,,,,,,,,,,,,,,,,,,,,,,,,,,,,,,,,,,,,,,,,,,,,,,1124.817221499994,1126.6574543999886,1124.3103478999983,1126.6574543999886,1126.6574543999886,1126.6574543999886,0.007011599998804741,0.013044199993601069,55,none,0,,,1131.6641920999973,1131.6641920999973,0.014762199993128888,0.014762199993128888,0.019805699994321913,0.05449929999304004,0.0614796000008937,0.10305819999484811,0.11001129999931436,1.0127502999966964,1135.1571687999967,1139.3375776999892,,,,,,,,,,,,,,,,,,,,,,,,,,,,,14,C,2023-12-08_14h45.49.715,gca_avoidance_task,2022.2.4,143.8317053892403,
positions.xlsx,stimuli.xlsx,stimuli/Social1.png,stimuli/Social2.png,stimuli/Nonsocial2.png,stimuli/Nonsocial1.png,,"(-0.7, 0.5)",cs_plus_ns,,,,,0,0,0,0,,,,,,,,,0,9,9,8,,,,,,,,,,,,,,,,,,,,,,,,,,,,,,,,,,,,,,,,,,,,,,,,,,,,,,,,,,1139.8444170000002,1141.1568837999948,1139.3375776999892,1141.1568837999948,1141.1568837999948,1141.1568837999948,0.006678099991404451,0.013442399998893961,55,none,0,,,1146.1705782999925,1146.1705782999925,0.01607240000157617,0.01607240000157617,0.027182399993762374,0.054885199991986156,0.0618728999979794,0.10350409999955446,0.11043439999048132,1.0132023000041954,1149.6565788000007,1153.2605804999912,,,,,,,,,,,,,,,,,,,,,,,,,,,,,14,C,2023-12-08_14h45.49.715,gca_avoidance_task,2022.2.4,143.8317053892403,
positions.xlsx,stimuli.xlsx,stimuli/Social1.png,stimuli/Social2.png,stimuli/Nonsocial2.png,stimuli/Nonsocial1.png,,"(-0.7, -0.5)",cs_minus_ns,,,,,0,0,0,0,,,,,,,,,0,10,10,13,,,,,,,,,,,,,,,,,,,,,,,,,,,,,,,,,,,,,,,,,,,,,,,,,,,,,,,,,,1153.7674729999999,1155.107708800002,1153.2605804999912,1155.107708800002,1155.107708800002,1155.107708800002,0.0073859000112861395,0.013051300004008226,60,reward,1,[0.23677100001077633],[0.23677490001136903],1155.3508003000024,1155.3508003000024,0.007957299996633083,0.007957299996633083,0.018196599994553253,0.05283289999351837,0.05983929999638349,0.10148189999745227,0.10844639998686034,1.0041876999894157,1158.8437140999886,1162.551922899991,,,,,,,,,,,,,,,,,,,,,,,,,,,,,14,C,2023-12-08_14h45.49.715,gca_avoidance_task,2022.2.4,143.8317053892403,
positions.xlsx,stimuli.xlsx,stimuli/Social1.png,stimuli/Social2.png,stimuli/Nonsocial2.png,stimuli/Nonsocial1.png,,"(-0.7, -0.5)",cs_plus_ns,,,,,0,0,0,0,,,,,,,,,0,11,11,9,,,,,,,,,,,,,,,,,,,,,,,,,,,,,,,,,,,,,,,,,,,,,,,,,,,,,,,,,,1163.0587852999888,1164.1073935999884,1162.551922899991,1164.1073935999884,1164.1073935999884,1164.1073935999884,0.006657399993855506,0.013123600001563318,60,shock,1,[0.39605359999404754],[0.3960573999938788],1164.5101403000008,1164.5101403000008,0.008147600005031563,0.008147600005031563,0.018014000001130626,0.052631900005508214,0.059624100002110936,0.10127020000072662,0.10820800000510644,1.0039953000086825,1168.0030918999983,1172.0514877999958,,,,,,,,,,,,,,,,,,,,,,,,,,,,,14,C,2023-12-08_14h45.49.715,gca_avoidance_task,2022.2.4,143.8317053892403,
positions.xlsx,stimuli.xlsx,stimuli/Social1.png,stimuli/Social2.png,stimuli/Nonsocial2.png,stimuli/Nonsocial1.png,,"(0.7, 0.5)",cs_plus_s,,,,,0,0,0,0,,,,,,,,,0,12,12,2,,,,,,,,,,,,,,,,,,,,,,,,,,,,,,,,,,,,,,,,,,,,,,,,,,,,,,,,,,1172.5584300999908,1173.9194941000023,1172.0514877999958,1173.9194941000023,1173.9194941000023,1173.9194941000023,0.0068906000087736174,0.01296100000035949,60,shock,1,[0.26382200000807643],[0.2707655000122031],1174.197248700002,1174.197248700002,0.007969799989950843,0.007969799989950843,0.0183987999917008,0.053070099995238706,0.05998399999225512,0.10163589999137912,0.10859799999161623,1.0043737999949371,1177.6902343999973,1181.6900368999923,,,,,,,,,,,,,,,,,,,,,,,,,,,,,14,C,2023-12-08_14h45.49.715,gca_avoidance_task,2022.2.4,143.8317053892403,
positions.xlsx,stimuli.xlsx,stimuli/Social1.png,stimuli/Social2.png,stimuli/Nonsocial2.png,stimuli/Nonsocial1.png,,"(0.7, 0.5)",cs_minus_s,,,,,0,0,0,0,,,,,,,,,0,13,13,6,,,,,,,,,,,,,,,,,,,,,,,,,,,,,,,,,,,,,,,,,,,,,,,,,,,,,,,,,,1182.1969305999955,1183.8565686999937,1181.6900368999923,1183.8565686999937,1183.8565686999937,1183.8565686999937,0.0066485000133980066,0.01302550001128111,65,reward,1,[0.4723417000059271],[0.4723456000065198],1184.3357389000012,1184.3357389000012,0.0075896000053035095,0.0075896000053035095,0.018292299995664507,0.053009600000223145,0.059985200001392514,0.10157299999264069,0.10853349999524653,1.0043616000039037,1187.8287028999912,1191.9674131999927,,,,,,,,,,,,,,,,,,,,,,,,,,,,,14,C,2023-12-08_14h45.49.715,gca_avoidance_task,2022.2.4,143.8317053892403,
positions.xlsx,stimuli.xlsx,stimuli/Social1.png,stimuli/Social2.png,stimuli/Nonsocial2.png,stimuli/Nonsocial1.png,,"(0.7, 0.5)",cs_minus_ns,,,,,0,0,0,0,,,,,,,,,0,14,14,14,,,,,,,,,,,,,,,,,,,,,,,,,,,,,,,,,,,,,,,,,,,,,,,,,,,,,,,,,,1192.474296100001,1194.0992536999984,1191.9674131999927,1194.0992536999984,1194.0992536999984,1194.0992536999984,0.00688129999616649,0.013122000003932044,70,reward,1,[0.3958712000021478],[0.39587480000045616],1194.5020742999914,1194.5020742999914,0.007526999994297512,0.007526999994297512,0.0185769999952754,0.053198399997199886,0.0601979999919422,0.10182850000273902,0.10879209999984596,1.0045866000000387,1197.9949245000025,1201.7170180999965,,,,,,,,,,,,,,,,,,,,,,,,,,,,,14,C,2023-12-08_14h45.49.715,gca_avoidance_task,2022.2.4,143.8317053892403,
positions.xlsx,stimuli.xlsx,stimuli/Social1.png,stimuli/Social2.png,stimuli/Nonsocial2.png,stimuli/Nonsocial1.png,,"(0.7, -0.5)",cs_plus_s,,,,,0,0,0,0,,,,,,,,,0,15,15,3,,,,,,,,,,,,,,,,,,,,,,,,,,,,,,,,,,,,,,,,,,,,,,,,,,,,,,,,,,1202.2239123999898,1203.682193200002,1201.7170180999965,1203.682193200002,1203.682193200002,1203.682193200002,0.005781800005934201,0.013479400004143827,70,none,0,,,1208.688937999992,1208.688937999992,0.014328700010082684,0.014328700010082684,0.020232700000633486,0.054917700006626546,0.06192040001042187,0.1035593999986304,0.11049630001070909,1.013221800007159,1212.1819273,1215.8137094999984,,,,,,,,,,,,,,,,,,,,,,,,,,,,,14,C,2023-12-08_14h45.49.715,gca_avoidance_task,2022.2.4,143.8317053892403,
positions.xlsx,stimuli.xlsx,stimuli/Social1.png,stimuli/Social2.png,stimuli/Nonsocial2.png,stimuli/Nonsocial1.png,,"(0.7, 0.5)",cs_plus_ns,,,,,0,0,0,0,,,,,,,,,1,0,16,10,,,,,,,,,,,,,,,,,,,,,,,,,,,,,,,,,,,,,,,,,,,,,,,,,,,,,,,,,,1216.3205907999945,1217.4941319999925,1215.8137094999984,1217.4941319999925,1217.4941319999925,1217.4941319999925,0.006854799998109229,0.01304330000129994,70,shock,1,[0.39685580000514165],[0.3968598000064958],1217.8969110999897,1217.8969110999897,0.009642499993788078,0.009642499993788078,0.017637199998716824,0.05232469999464229,0.05931499999132939,0.10089269999298267,0.10788539999339264,1.0037045999924885,1221.3898659999977,1225.2508428,,,,,,,,,,,,,,,,,,,,,,,,,,,,,14,C,2023-12-08_14h45.49.715,gca_avoidance_task,2022.2.4,143.8317053892403,
positions.xlsx,stimuli.xlsx,stimuli/Social1.png,stimuli/Social2.png,stimuli/Nonsocial2.png,stimuli/Nonsocial1.png,,"(-0.7, 0.5)",cs_minus_ns,,,,,0,0,0,0,,,,,,,,,1,1,17,12,,,,,,,,,,,,,,,,,,,,,,,,,,,,,,,,,,,,,,,,,,,,,,,,,,,,,,,,,,1225.7577383000025,1227.7229418999923,1225.2508428,1227.7229418999923,1227.7229418999923,1227.7229418999923,0.007295400006114505,0.012905900002806447,75,reward,1,[0.4234815000090748],[0.42348550001042895],1228.1534554999962,1228.1534554999962,0.00860740001371596,0.00860740001371596,0.018403300011414103,0.0530686000129208,0.060030300010112114,0.101669400013634,0.1086805000086315,1.0044167000014568,1231.6464100000012,1236.1254286999902,,,,,,,,,,,,,,,,,,,,,,,,,,,,,14,C,2023-12-08_14h45.49.715,gca_avoidance_task,2022.2.4,143.8317053892403,
positions.xlsx,stimuli.xlsx,stimuli/Social1.png,stimuli/Social2.png,stimuli/Nonsocial2.png,stimuli/Nonsocial1.png,,"(0.7, -0.5)",cs_plus_s,,,,,0,0,0,0,,,,,,,,,1,2,18,3,,,,,,,,,,,,,,,,,,,,,,,,,,,,,,,,,,,,,,,,,,,,,,,,,,,,,,,,,,1236.6323241999926,1237.6669695000019,1236.1254286999902,1237.6669695000019,1237.6669695000019,1237.6669695000019,0.006605400005355477,0.013092399996821769,75,none,0,,,1242.6806816999888,1242.6806816999888,0.014635700004873797,0.014635700004873797,0.026832500007003546,0.0545228999981191,0.06149059999734163,0.10315320000518113,0.11008810000203084,1.012807300008717,1246.1666976999986,1250.4789942999923,,,,,,,,,,,,,,,,,,,,,,,,,,,,,14,C,2023-12-08_14h45.49.715,gca_avoidance_task,2022.2.4,143.8317053892403,
positions.xlsx,stimuli.xlsx,stimuli/Social1.png,stimuli/Social2.png,stimuli/Nonsocial2.png,stimuli/Nonsocial1.png,,"(-0.7, -0.5)",cs_plus_ns,,,,,0,0,0,0,,,,,,,,,1,3,19,9,,,,,,,,,,,,,,,,,,,,,,,,,,,,,,,,,,,,,,,,,,,,,,,,,,,,,,,,,,1250.9859001000004,1252.603896200002,1250.4789942999923,1252.603896200002,1252.603896200002,1252.603896200002,0.0071890999970491976,0.013318700002855621,75,none,0,,,1257.6105828,1257.6105828,0.013868000009097159,0.013868000009097159,0.020055700006196275,0.05479850000119768,0.06172610000066925,0.10336560000723694,0.11030339999706484,1.0130632000073092,1261.10361369999,1265.2562143999967,,,,,,,,,,,,,,,,,,,,,,,,,,,,,14,C,2023-12-08_14h45.49.715,gca_avoidance_task,2022.2.4,143.8317053892403,
positions.xlsx,stimuli.xlsx,stimuli/Social1.png,stimuli/Social2.png,stimuli/Nonsocial2.png,stimuli/Nonsocial1.png,,"(-0.7, -0.5)",cs_plus_s,,,,,0,0,0,0,,,,,,,,,1,4,20,1,,,,,,,,,,,,,,,,,,,,,,,,,,,,,,,,,,,,,,,,,,,,,,,,,,,,,,,,,,1265.7630967000005,1267.429691199999,1265.2562143999967,1267.429691199999,1267.429691199999,1267.429691199999,0.00646279999637045,0.013573499993071891,75,none,0,,,1272.4364732999966,1272.4364732999966,0.013629599998239428,0.013629599998239428,0.020406600000569597,0.0550053999904776,0.061973899995791726,0.10365619999356568,0.1106290000025183,1.013378699994064,1275.9293688999896,1279.7348128000012,,,,,,,,,,,,,,,,,,,,,,,,,,,,,14,C,2023-12-08_14h45.49.715,gca_avoidance_task,2022.2.4,143.8317053892403,
positions.xlsx,stimuli.xlsx,stimuli/Social1.png,stimuli/Social2.png,stimuli/Nonsocial2.png,stimuli/Nonsocial1.png,,"(0.7, 0.5)",cs_minus_s,,,,,0,0,0,0,,,,,,,,,1,5,21,6,,,,,,,,,,,,,,,,,,,,,,,,,,,,,,,,,,,,,,,,,,,,,,,,,,,,,,,,,,1280.2416721999907,1281.741678899998,1279.7348128000012,1281.741678899998,1281.741678899998,1281.741678899998,0.008863600000040606,0.020131299999775365,80,reward,1,[0.4306788999965647],[0.4306827999971574],1282.1721685999946,1282.1721685999946,0.0073148999945260584,0.0073148999945260584,0.018371500002103858,0.05302320000191685,0.060055199995986186,0.10161430000152905,0.10856699998839758,1.0043700999958673,1285.665099299993,1289.7969527999958,,,,,,,,,,,,,,,,,,,,,,,,,,,,,14,C,2023-12-08_14h45.49.715,gca_avoidance_task,2022.2.4,143.8317053892403,
positions.xlsx,stimuli.xlsx,stimuli/Social1.png,stimuli/Social2.png,stimuli/Nonsocial2.png,stimuli/Nonsocial1.png,,"(-0.7, 0.5)",cs_plus_ns,,,,,0,0,0,0,,,,,,,,,1,6,22,8,,,,,,,,,,,,,,,,,,,,,,,,,,,,,,,,,,,,,,,,,,,,,,,,,,,,,,,,,,1290.303795899992,1291.6579615999945,1289.7969527999958,1291.6579615999945,1291.6579615999945,1291.6579615999945,0.0064295000047422945,0.013460300004226156,80,none,0,,,1296.6646762000018,1296.6646762000018,0.014169900008710101,0.014169900008710101,0.020225800006301142,0.05484130000695586,0.06182170000101905,0.10348309999972116,0.11047070000495296,1.0131776000052923,1300.1576528000005,1304.0324933999946,,,,,,,,,,,,,,,,,,,,,,,,,,,,,14,C,2023-12-08_14h45.49.715,gca_avoidance_task,2022.2.4,143.8317053892403,
positions.xlsx,stimuli.xlsx,stimuli/Social1.png,stimuli/Social2.png,stimuli/Nonsocial2.png,stimuli/Nonsocial1.png,,"(0.7, 0.5)",cs_minus_ns,,,,,0,0,0,0,,,,,,,,,1,7,23,14,,,,,,,,,,,,,,,,,,,,,,,,,,,,,,,,,,,,,,,,,,,,,,,,,,,,,,,,,,1304.539367099991,1305.9073617999966,1304.0324933999946,1305.9073617999966,1305.9073617999966,1305.9073617999966,0.006601400004001334,0.0131833000050392,85,reward,1,[0.3892393999994965],[0.3892433000000892],1306.3031639999972,1306.3031639999972,0.007705399999395013,0.007705399999395013,0.018018799994024448,0.05273989999841433,0.059688099994673394,0.1012985999986995,0.1082581999944523,1.004060599996592,1309.7961556999944,1313.9695707999927,,,,,,,,,,,,,,,,,,,,,,,,,,,,,14,C,2023-12-08_14h45.49.715,gca_avoidance_task,2022.2.4,143.8317053892403,
positions.xlsx,stimuli.xlsx,stimuli/Social1.png,stimuli/Social2.png,stimuli/Nonsocial2.png,stimuli/Nonsocial1.png,,"(-0.7, -0.5)",cs_minus_ns,,,,,0,0,0,0,,,,,,,,,1,8,24,13,,,,,,,,,,,,,,,,,,,,,,,,,,,,,,,,,,,,,,,,,,,,,,,,,,,,,,,,,,1314.4764541999903,1316.1985974999989,1313.9695707999927,1316.1985974999989,1316.1985974999989,1316.1985974999989,0.0067562000040197745,0.0131462000135798,90,reward,1,[0.5070032000076026],[0.5070067000051495],1316.712521399997,1316.712521399997,0.007560300000477582,0.007560300000477582,0.018513699993491173,0.05312969999795314,0.06007619999581948,0.10174859999096952,0.1086624000017764,1.004449999993085,1320.205477999989,1324.2538881999935,,,,,,,,,,,,,,,,,,,,,,,,,,,,,14,C,2023-12-08_14h45.49.715,gca_avoidance_task,2022.2.4,143.8317053892403,
positions.xlsx,stimuli.xlsx,stimuli/Social1.png,stimuli/Social2.png,stimuli/Nonsocial2.png,stimuli/Nonsocial1.png,,"(-0.7, 0.5)",cs_minus_s,,,,,0,0,0,0,,,,,,,,,1,9,25,4,,,,,,,,,,,,,,,,,,,,,,,,,,,,,,,,,,,,,,,,,,,,,,,,,,,,,,,,,,1324.7607594,1326.705151000002,1324.2538881999935,1326.705151000002,1326.705151000002,1326.705151000002,0.006221000003279187,0.013121100011630915,95,reward,1,[0.5833161000045948],[0.583319900004426],1327.2954280999984,1327.2954280999984,0.006740600001649,0.006740600001649,0.01831240000319667,0.05301590000453871,0.05993129999842495,0.10158820000651758,0.10855819999414962,1.0043396999972174,1330.7884008999972,1334.6979252999881,,,,,,,,,,,,,,,,,,,,,,,,,,,,,14,C,2023-12-08_14h45.49.715,gca_avoidance_task,2022.2.4,143.8317053892403,
positions.xlsx,stimuli.xlsx,stimuli/Social1.png,stimuli/Social2.png,stimuli/Nonsocial2.png,stimuli/Nonsocial1.png,,"(-0.7, 0.5)",cs_plus_s,,,,,0,0,0,0,,,,,,,,,1,10,26,0,,,,,,,,,,,,,,,,,,,,,,,,,,,,,,,,,,,,,,,,,,,,,,,,,,,,,,,,,,1335.204815899997,1336.4895029999898,1334.6979252999881,1336.4895029999898,1336.4895029999898,1336.4895029999898,0.006037099999957718,0.013446199998725206,95,none,0,,,1341.4963010999927,1341.4963010999927,0.01369880000129342,0.01369880000129342,0.02027999999700114,0.05494080000789836,0.06185860000550747,0.10351090000767726,0.11044089999631979,1.0132402000017464,1344.9892093999952,1348.7598859999998,,,,,,,,,,,,,,,,,,,,,,,,,,,,,14,C,2023-12-08_14h45.49.715,gca_avoidance_task,2022.2.4,143.8317053892403,
positions.xlsx,stimuli.xlsx,stimuli/Social1.png,stimuli/Social2.png,stimuli/Nonsocial2.png,stimuli/Nonsocial1.png,,"(-0.7, -0.5)",cs_minus_s,,,,,0,0,0,0,,,,,,,,,1,11,27,5,,,,,,,,,,,,,,,,,,,,,,,,,,,,,,,,,,,,,,,,,,,,,,,,,,,,,,,,,,1349.2667706999928,1351.0722905000002,1348.7598859999998,1351.0722905000002,1351.0722905000002,1351.0722905000002,0.005900100004510023,0.013093100002151914,100,reward,1,[0.354348699998809],[0.35435270000016317],1351.4333303999883,1351.4333303999883,0.007193099998403341,0.007193099998403341,0.018313900000066496,0.05297740000241902,0.05991650000214577,0.10157579999940936,0.10857869999017566,1.0043170999997528,1354.9263001999934,1358.6622528000007,,,,,,,,,,,,,,,,,,,,,,,,,,,,,14,C,2023-12-08_14h45.49.715,gca_avoidance_task,2022.2.4,143.8317053892403,
positions.xlsx,stimuli.xlsx,stimuli/Social1.png,stimuli/Social2.png,stimuli/Nonsocial2.png,stimuli/Nonsocial1.png,,"(0.7, -0.5)",cs_plus_ns,,,,,0,0,0,0,,,,,,,,,1,12,28,11,,,,,,,,,,,,,,,,,,,,,,,,,,,,,,,,,,,,,,,,,,,,,,,,,,,,,,,,,,1359.1691477999993,1360.3218668999907,1358.6622528000007,1360.3218668999907,1360.3218668999907,1360.3218668999907,0.007014199989498593,0.013071199995465577,100,none,0,,,1365.3286683999904,1365.3286683999904,0.014008999991347082,0.014008999991347082,0.019894500001100823,0.0545404000004055,0.0614759000018239,0.10316990000137594,0.11010929998883512,1.0128782999963732,1368.8215597999952,1372.34926979999,,,,,,,,,,,,,,,,,,,,,,,,,,,,,14,C,2023-12-08_14h45.49.715,gca_avoidance_task,2022.2.4,143.8317053892403,
positions.xlsx,stimuli.xlsx,stimuli/Social1.png,stimuli/Social2.png,stimuli/Nonsocial2.png,stimuli/Nonsocial1.png,,"(0.7, -0.5)",cs_minus_ns,,,,,0,0,0,0,,,,,,,,,1,13,29,15,,,,,,,,,,,,,,,,,,,,,,,,,,,,,,,,,,,,,,,,,,,,,,,,,,,,,,,,,,1372.856151999993,1374.293585099993,1372.34926979999,1374.293585099993,1374.293585099993,1374.293585099993,0.006830900005297735,0.013044999999692664,105,reward,1,[0.40973790000134613],[0.40974139999889303],1374.7657818000007,1374.7657818000007,0.00785409999662079,0.00785409999662079,0.07379730000684503,0.07379730000684503,0.0806979000044521,0.10155310000118334,0.1084982000029413,1.0042677000019467,1378.203182799989,1382.6266090999998,,,,,,,,,,,,,,,,,,,,,,,,,,,,,14,C,2023-12-08_14h45.49.715,gca_avoidance_task,2022.2.4,143.8317053892403,
positions.xlsx,stimuli.xlsx,stimuli/Social1.png,stimuli/Social2.png,stimuli/Nonsocial2.png,stimuli/Nonsocial1.png,,"(0.7, -0.5)",cs_minus_s,,,,,0,0,0,0,,,,,,,,,1,14,30,7,,,,,,,,,,,,,,,,,,,,,,,,,,,,,,,,,,,,,,,,,,,,,,,,,,,,,,,,,,1383.1335046000022,1384.2237431999965,1382.6266090999998,1384.2237431999965,1384.2237431999965,1384.2237431999965,0.006452700006775558,0.01320780000241939,110,reward,1,[0.41701400000602007],[0.41701770000508986],1384.6473291000002,1384.6473291000002,0.0067306999990250915,0.0067306999990250915,0.018188999994890764,0.05286599999817554,0.059934599994448945,0.10149059999093879,0.10843009999371134,1.0042428000015207,1388.1402613999962,1392.0915361999942,,,,,,,,,,,,,,,,,,,,,,,,,,,,,14,C,2023-12-08_14h45.49.715,gca_avoidance_task,2022.2.4,143.8317053892403,
positions.xlsx,stimuli.xlsx,stimuli/Social1.png,stimuli/Social2.png,stimuli/Nonsocial2.png,stimuli/Nonsocial1.png,,"(0.7, 0.5)",cs_plus_s,,,,,0,0,0,0,,,,,,,,,1,15,31,2,,,,,,,,,,,,,,,,,,,,,,,,,,,,,,,,,,,,,,,,,,,,,,,,,,,,,,,,,,1392.598417000001,1393.6331211999932,1392.0915361999942,1393.6331211999932,1393.6331211999932,1393.6331211999932,0.006499900002381764,0.013460999995004386,110,none,0,,,1398.6467675999884,1398.6467675999884,0.01565699999628123,0.01565699999628123,0.027111999996122904,0.05483609999646433,0.061823800002457574,0.10342709999531507,0.11045799999556039,1.0131527000048663,1402.1327936000016,1406.6118059,,,,,,,,,,,,,,,,,,,,,,,,,,,,,14,C,2023-12-08_14h45.49.715,gca_avoidance_task,2022.2.4,143.8317053892403,
positions.xlsx,stimuli.xlsx,stimuli/Social1.png,stimuli/Social2.png,stimuli/Nonsocial2.png,stimuli/Nonsocial1.png,,"(0.7, 0.5)",cs_plus_s,,,,,0,0,0,0,,,,,,,,,2,0,32,2,,,,,,,,,,,,,,,,,,,,,,,,,,,,,,,,,,,,,,,,,,,,,,,,,,,,,,,,,,1407.1186897000007,1408.5977734999906,1406.6118059,1408.5977734999906,1408.5977734999906,1408.5977734999906,0.005985199997667223,0.013446299999486655,110,none,0,,,1413.6045277999947,1413.6045277999947,0.013666500002727844,0.013666500002727844,0.02020749999792315,0.05493949999799952,0.06187609999324195,0.1035210999980336,0.11046589999750722,1.0131740999931935,1417.0975094999885,1421.048735599994,,,,,,,,,,,,,,,,,,,,,,,,,,,,,14,C,2023-12-08_14h45.49.715,gca_avoidance_task,2022.2.4,143.8317053892403,
positions.xlsx,stimuli.xlsx,stimuli/Social1.png,stimuli/Social2.png,stimuli/Nonsocial2.png,stimuli/Nonsocial1.png,,"(-0.7, -0.5)",cs_plus_ns,,,,,0,0,0,0,,,,,,,,,2,1,33,9,,,,,,,,,,,,,,,,,,,,,,,,,,,,,,,,,,,,,,,,,,,,,,,,,,,,,,,,,,1421.5555917999882,1423.0694165000023,1421.048735599994,1423.0694165000023,1423.0694165000023,1423.0694165000023,0.007223399996291846,0.013175400003092363,110,none,0,,,1428.0762080999993,1428.0762080999993,0.014835900001344271,0.014835900001344271,0.020026800004416145,0.05468560000008438,0.06157780000648927,0.10329389999969862,0.1102513999940129,1.0129173000023002,1431.5691783999937,1435.6731746000005,,,,,,,,,,,,,,,,,,,,,,,,,,,,,14,C,2023-12-08_14h45.49.715,gca_avoidance_task,2022.2.4,143.8317053892403,
positions.xlsx,stimuli.xlsx,stimuli/Social1.png,stimuli/Social2.png,stimuli/Nonsocial2.png,stimuli/Nonsocial1.png,,"(-0.7, 0.5)",cs_minus_ns,,,,,0,0,0,0,,,,,,,,,2,2,34,12,,,,,,,,,,,,,,,,,,,,,,,,,,,,,,,,,,,,,,,,,,,,,,,,,,,,,,,,,,1436.1800517999945,1437.3119480999885,1435.6731746000005,1437.3119480999885,1437.3119480999885,1437.3119480999885,0.007224800006952137,0.013304500011145137,115,reward,1,[0.659963100013556],[0.6599663000088185],1437.9786034999997,1437.9786034999997,0.007800100007443689,0.007800100007443689,0.018551200002548285,0.053173500011325814,0.060119900008430704,0.10180750000290573,0.1087384000129532,1.0046276000066428,1441.4715649999998,1445.2422181000002,,,,,,,,,,,,,,,,,,,,,,,,,,,,,14,C,2023-12-08_14h45.49.715,gca_avoidance_task,2022.2.4,143.8317053892403,
positions.xlsx,stimuli.xlsx,stimuli/Social1.png,stimuli/Social2.png,stimuli/Nonsocial2.png,stimuli/Nonsocial1.png,,"(-0.7, 0.5)",cs_plus_s,,,,,0,0,0,0,,,,,,,,,2,3,35,0,,,,,,,,,,,,,,,,,,,,,,,,,,,,,,,,,,,,,,,,,,,,,,,,,,,,,,,,,,1445.7491052999976,1446.8949066999921,1445.2422181000002,1446.8949066999921,1446.8949066999921,1446.8949066999921,0.006023599999025464,0.013164600008167326,115,none,0,,,1451.9016829999891,1451.9016829999891,0.014017199995578267,0.014017199995578267,0.019990300002973527,0.054601700001512654,0.06159359999583103,0.10320640000281855,0.11020300000382122,1.0129467000078876,1455.394638999991,1459.199973900002,,,,,,,,,,,,,,,,,,,,,,,,,,,,,14,C,2023-12-08_14h45.49.715,gca_avoidance_task,2022.2.4,143.8317053892403,
positions.xlsx,stimuli.xlsx,stimuli/Social1.png,stimuli/Social2.png,stimuli/Nonsocial2.png,stimuli/Nonsocial1.png,,"(-0.7, -0.5)",cs_plus_s,,,,,0,0,0,0,,,,,,,,,2,4,36,1,,,,,,,,,,,,,,,,,,,,,,,,,,,,,,,,,,,,,,,,,,,,,,,,,,,,,,,,,,1459.706904599996,1461.2832572999905,1459.199973900002,1461.2832572999905,1461.2832572999905,1461.2832572999905,0.005699200002709404,0.013338500008103438,115,none,0,,,1466.2900282999908,1466.2900282999908,0.013368600004469045,0.013368600004469045,0.020093800005270168,0.054751100004068576,0.06169820000650361,0.10334129999682773,0.11031000000366475,1.013003200001549,1469.7829447999975,1473.51892219999,,,,,,,,,,,,,,,,,,,,,,,,,,,,,14,C,2023-12-08_14h45.49.715,gca_avoidance_task,2022.2.4,143.8317053892403,
positions.xlsx,stimuli.xlsx,stimuli/Social1.png,stimuli/Social2.png,stimuli/Nonsocial2.png,stimuli/Nonsocial1.png,,"(0.7, 0.5)",cs_plus_ns,,,,,0,0,0,0,,,,,,,,,2,5,37,10,,,,,,,,,,,,,,,,,,,,,,,,,,,,,,,,,,,,,,,,,,,,,,,,,,,,,,,,,,1474.0257878999982,1475.3729669000022,1473.51892219999,1475.3729669000022,1475.3729669000022,1475.3729669000022,0.006288200005656108,0.01342109999677632,115,shock,1,[0.4795986999961315],[0.4796024000097532],1475.8590735999896,1475.8590735999896,0.008425899999565445,0.008425899999565445,0.01844310000888072,0.05310210000607185,0.06005650000588503,0.10173429999849759,0.10864639999635983,1.004482000003918,1479.3520004999882,1483.6851719999977,,,,,,,,,,,,,,,,,,,,,,,,,,,,,14,C,2023-12-08_14h45.49.715,gca_avoidance_task,2022.2.4,143.8317053892403,
positions.xlsx,stimuli.xlsx,stimuli/Social1.png,stimuli/Social2.png,stimuli/Nonsocial2.png,stimuli/Nonsocial1.png,,"(0.7, -0.5)",cs_plus_ns,,,,,0,0,0,0,,,,,,,,,2,6,38,11,,,,,,,,,,,,,,,,,,,,,,,,,,,,,,,,,,,,,,,,,,,,,,,,,,,,,,,,,,1484.1920716999884,1486.1017281999957,1483.6851719999977,1486.1017281999957,1486.1017281999957,1486.1017281999957,0.007071699990774505,0.013538100000005215,115,none,0,,,1491.108450300002,1491.108450300002,0.014630599995143712,0.014630599995143712,0.020238099998096004,0.05492529999173712,0.06191249999392312,0.10349789999600034,0.11047429998870939,1.0132267000008142,1494.6014145999943,1498.8165295999934,,,,,,,,,,,,,,,,,,,,,,,,,,,,,14,C,2023-12-08_14h45.49.715,gca_avoidance_task,2022.2.4,143.8317053892403,
positions.xlsx,stimuli.xlsx,stimuli/Social1.png,stimuli/Social2.png,stimuli/Nonsocial2.png,stimuli/Nonsocial1.png,,"(0.7, -0.5)",cs_plus_s,,,,,0,0,0,0,,,,,,,,,2,7,39,3,,,,,,,,,,,,,,,,,,,,,,,,,,,,,,,,,,,,,,,,,,,,,,,,,,,,,,,,,,1499.323439300002,1500.7053171000007,1498.8165295999934,1500.7053171000007,1500.7053171000007,1500.7053171000007,0.0060815999895567074,0.0133225999888964,115,none,0,,,1505.7120515999995,1505.7120515999995,0.01406180000049062,0.01406180000049062,0.020039800001541153,0.05471479998959694,0.06167019999702461,0.10338349999801721,0.11037409999698866,1.0130445999966469,1509.2050258999952,1513.399295700001,,,,,,,,,,,,,,,,,,,,,,,,,,,,,14,C,2023-12-08_14h45.49.715,gca_avoidance_task,2022.2.4,143.8317053892403,
positions.xlsx,stimuli.xlsx,stimuli/Social1.png,stimuli/Social2.png,stimuli/Nonsocial2.png,stimuli/Nonsocial1.png,,"(-0.7, -0.5)",cs_minus_s,,,,,0,0,0,0,,,,,,,,,2,8,40,5,,,,,,,,,,,,,,,,,,,,,,,,,,,,,,,,,,,,,,,,,,,,,,,,,,,,,,,,,,1513.9062077999988,1514.9756014000013,1513.399295700001,1514.9756014000013,1514.9756014000013,1514.9756014000013,0.005672799990861677,0.013381299999309704,120,reward,1,[0.708723599993391],[0.7087273999932222],1515.6908202999912,1515.6908202999912,0.007049100007861853,0.007049100007861853,0.01824990000750404,0.052902200011885725,0.0598904000071343,0.10153130000981037,0.10850700001174118,1.0043007000058424,1519.1837581,1522.8017122999881,,,,,,,,,,,,,,,,,,,,,,,,,,,,,14,C,2023-12-08_14h45.49.715,gca_avoidance_task,2022.2.4,143.8317053892403,
positions.xlsx,stimuli.xlsx,stimuli/Social1.png,stimuli/Social2.png,stimuli/Nonsocial2.png,stimuli/Nonsocial1.png,,"(0.7, 0.5)",cs_minus_ns,,,,,0,0,0,0,,,,,,,,,2,9,41,14,,,,,,,,,,,,,,,,,,,,,,,,,,,,,,,,,,,,,,,,,,,,,,,,,,,,,,,,,,1523.3085738999944,1524.5238145999901,1522.8017122999881,1524.5238145999901,1524.5238145999901,1524.5238145999901,0.0067909999925177544,0.013542299988330342,125,reward,1,[0.61867589999747],[0.618680100000347],1525.1487961999956,1525.1487961999956,0.007789900002535433,0.007789900002535433,0.01850160000321921,0.05322640000667889,0.06016940000699833,0.10178549999545794,0.10877150000305846,1.004520100002992,1528.6417341999913,1532.8290379999962,,,,,,,,,,,,,,,,,,,,,,,,,,,,,14,C,2023-12-08_14h45.49.715,gca_avoidance_task,2022.2.4,143.8317053892403,
positions.xlsx,stimuli.xlsx,stimuli/Social1.png,stimuli/Social2.png,stimuli/Nonsocial2.png,stimuli/Nonsocial1.png,,"(0.7, -0.5)",cs_minus_s,,,,,0,0,0,0,,,,,,,,,2,10,42,7,,,,,,,,,,,,,,,,,,,,,,,,,,,,,,,,,,,,,,,,,,,,,,,,,,,,,,,,,,1533.3359892000008,1535.1067658999964,1532.8290379999962,1535.1067658999964,1535.1067658999964,1535.1067658999964,0.00597010001365561,0.012988700007554144,130,reward,1,[0.5490031000081217],[0.5490068000071915],1535.6622896999907,1535.6622896999907,0.007453500002156943,0.007453500002156943,0.01825480000115931,0.05289380000613164,0.059904400011873804,0.10157030000118539,0.10851520000142045,1.0042716000025393,1539.1552488000016,1542.7800676999905,,,,,,,,,,,,,,,,,,,,,,,,,,,,,14,C,2023-12-08_14h45.49.715,gca_avoidance_task,2022.2.4,143.8317053892403,
positions.xlsx,stimuli.xlsx,stimuli/Social1.png,stimuli/Social2.png,stimuli/Nonsocial2.png,stimuli/Nonsocial1.png,,"(0.7, -0.5)",cs_minus_ns,,,,,0,0,0,0,,,,,,,,,2,11,43,15,,,,,,,,,,,,,,,,,,,,,,,,,,,,,,,,,,,,,,,,,,,,,,,,,,,,,,,,,,1543.286930199989,1544.4883061,1542.7800676999905,1544.4883061,1544.4883061,1544.4883061,0.007258800003910437,0.013247800001408905,135,reward,1,[0.43101349999778904],[0.43101720001141075],1544.925813199996,1544.925813199996,0.008467200008453801,0.008467200008453801,0.018313700013095513,0.05292700001155026,0.059945500004687347,0.1015934000024572,0.1085289000038756,1.0043162000074517,1548.4187447000004,1552.7935833999945,,,,,,,,,,,,,,,,,,,,,,,,,,,,,14,C,2023-12-08_14h45.49.715,gca_avoidance_task,2022.2.4,143.8317053892403,
positions.xlsx,stimuli.xlsx,stimuli/Social1.png,stimuli/Social2.png,stimuli/Nonsocial2.png,stimuli/Nonsocial1.png,,"(-0.7, 0.5)",cs_plus_ns,,,,,0,0,0,0,,,,,,,,,2,12,44,8,,,,,,,,,,,,,,,,,,,,,,,,,,,,,,,,,,,,,,,,,,,,,,,,,,,,,,,,,,1553.3004741999903,1554.8559754000016,1552.7935833999945,1554.8559754000016,1554.8559754000016,1554.8559754000016,0.007135600011679344,0.013473099999828264,135,none,0,,,1559.8627560999885,1559.8627560999885,0.014879599999403581,0.014879599999403581,0.020232900002156384,0.05493110000679735,0.06185820000246167,0.10354770001140423,0.1104955000046175,1.0131863000133308,1563.3556975999963,1567.730508499997,,,,,,,,,,,,,,,,,,,,,,,,,,,,,14,C,2023-12-08_14h45.49.715,gca_avoidance_task,2022.2.4,143.8317053892403,
positions.xlsx,stimuli.xlsx,stimuli/Social1.png,stimuli/Social2.png,stimuli/Nonsocial2.png,stimuli/Nonsocial1.png,,"(-0.7, 0.5)",cs_minus_s,,,,,0,0,0,0,,,,,,,,,2,13,45,4,,,,,,,,,,,,,,,,,,,,,,,,,,,,,,,,,,,,,,,,,,,,,,,,,,,,,,,,,,1568.2373571999924,1569.2651296999975,1567.730508499997,1569.2651296999975,1569.2651296999975,1569.2651296999975,0.007436799991410226,0.013202999994973652,140,reward,1,[0.6111913999920944],[0.6111950999911642],1569.8831625999883,1569.8831625999883,0.007682600000407547,0.007682600000407547,0.018605900011607446,0.05326420000346843,0.06020649999845773,0.10185910000291187,0.10879270000441466,1.0046338000101969,1573.3760932000005,1577.119011799994,,,,,,,,,,,,,,,,,,,,,,,,,,,,,14,C,2023-12-08_14h45.49.715,gca_avoidance_task,2022.2.4,143.8317053892403,
positions.xlsx,stimuli.xlsx,stimuli/Social1.png,stimuli/Social2.png,stimuli/Nonsocial2.png,stimuli/Nonsocial1.png,,"(-0.7, -0.5)",cs_minus_ns,,,,,0,0,0,0,,,,,,,,,2,14,46,13,,,,,,,,,,,,,,,,,,,,,,,,,,,,,,,,,,,,,,,,,,,,,,,,,,,,,,,,,,1577.6259009999922,1579.1119604999985,1577.119011799994,1579.1119604999985,1579.1119604999985,1579.1119604999985,0.006925399997271597,0.013065099992672913,145,reward,1,[0.6527433000010205],[0.6527471000008518],1579.771649199989,1579.771649199989,0.007960300004924648,0.007960300004924648,0.018441300009726547,0.05316250000032596,0.060098300004028715,0.10172270001203287,0.10871730001235846,1.0045090000057826,1583.2645754999976,1587.5144443999889,,,,,,,,,,,,,,,,,,,,,,,,,,,,,14,C,2023-12-08_14h45.49.715,gca_avoidance_task,2022.2.4,143.8317053892403,
positions.xlsx,stimuli.xlsx,stimuli/Social1.png,stimuli/Social2.png,stimuli/Nonsocial2.png,stimuli/Nonsocial1.png,,"(0.7, 0.5)",cs_minus_s,,,,,0,0,0,0,,,,,,,,,2,15,47,6,,,,,,,,,,,,,,,,,,,,,,,,,,,,,,,,,,,,,,,,,,,,,,,,,,,,,,,,,,1588.021329299998,1589.3685076999973,1587.5144443999889,1589.3685076999973,1589.3685076999973,1589.3685076999973,0.006486300000688061,0.013238100000307895,150,reward,1,[0.4515258999890648],[0.4515295999881346],1589.8268376999913,1589.8268376999913,0.0070940000005066395,0.0070940000005066395,0.01813620000029914,0.05277120000391733,0.05976899999950547,0.101360200002091,0.10831719999259803,1.0041753999976208,1593.3198309,1596.861331299995,,,,,,,,,,,,,,,,,,,,,,,,,,,,,14,C,2023-12-08_14h45.49.715,gca_avoidance_task,2022.2.4,143.8317053892403,
positions.xlsx,stimuli.xlsx,stimuli/Social1.png,stimuli/Social2.png,stimuli/Nonsocial2.png,stimuli/Nonsocial1.png,,"(-0.7, 0.5)",cs_plus_s,,,,,0,0,0,0,,,,,,,,,3,0,48,0,,,,,,,,,,,,,,,,,,,,,,,,,,,,,,,,,,,,,,,,,,,,,,,,,,,,,,,,,,1597.3681795000011,1599.333412299995,1596.861331299995,1599.333412299995,1599.333412299995,1599.333412299995,0.00648350000847131,0.013073800000711344,150,none,0,,,1604.3401441999886,1604.3401441999886,0.013359000004129484,0.013359000004129484,0.019810199999483302,0.05446559999836609,0.0614590000041062,0.10310449999815319,0.11005350000050385,1.012787700004992,1607.8331244,1611.4718539999885,,,,,,,,,,,,,,,,,,,,,,,,,,,,,14,C,2023-12-08_14h45.49.715,gca_avoidance_task,2022.2.4,143.8317053892403,
positions.xlsx,stimuli.xlsx,stimuli/Social1.png,stimuli/Social2.png,stimuli/Nonsocial2.png,stimuli/Nonsocial1.png,,"(0.7, 0.5)",cs_minus_ns,,,,,0,0,0,0,,,,,,,,,3,1,49,14,,,,,,,,,,,,,,,,,,,,,,,,,,,,,,,,,,,,,,,,,,,,,,,,,,,,,,,,,,1611.9787070999882,1613.805043100001,1611.4718539999885,1613.805043100001,1613.805043100001,1613.805043100001,0.006841099995654076,0.012948799994774163,155,reward,1,[0.4304835999937495],[0.4304872000066098],1614.242527399998,1614.242527399998,0.007623400000738911,0.007623400000738911,0.01873699999123346,0.05336700000043493,0.060321299999486655,0.10200970000005327,0.10895609999715816,1.0047766999923624,1617.7354561999964,1621.2423113999976,,,,,,,,,,,,,,,,,,,,,,,,,,,,,14,C,2023-12-08_14h45.49.715,gca_avoidance_task,2022.2.4,143.8317053892403,
positions.xlsx,stimuli.xlsx,stimuli/Social1.png,stimuli/Social2.png,stimuli/Nonsocial2.png,stimuli/Nonsocial1.png,,"(-0.7, -0.5)",cs_plus_ns,,,,,0,0,0,0,,,,,,,,,3,2,50,9,,,,,,,,,,,,,,,,,,,,,,,,,,,,,,,,,,,,,,,,,,,,,,,,,,,,,,,,,,1621.7491885999916,1623.2143937999936,1621.2423113999976,1623.2143937999936,1623.2143937999936,1623.2143937999936,0.006677400000626221,0.01293509999231901,155,none,0,,,1628.2211666999938,1628.2211666999938,0.014712099989992566,0.014712099989992566,0.019707100000232458,0.05441449998761527,0.061354699995717965,0.10299239998857956,0.1099225999932969,1.0126751999923727,1631.7141241999925,1635.720916499995,,,,,,,,,,,,,,,,,,,,,,,,,,,,,14,C,2023-12-08_14h45.49.715,gca_avoidance_task,2022.2.4,143.8317053892403,
positions.xlsx,stimuli.xlsx,stimuli/Social1.png,stimuli/Social2.png,stimuli/Nonsocial2.png,stimuli/Nonsocial1.png,,"(-0.7, -0.5)",cs_minus_ns,,,,,0,0,0,0,,,,,,,,,3,3,51,13,,,,,,,,,,,,,,,,,,,,,,,,,,,,,,,,,,,,,,,,,,,,,,,,,,,,,,,,,,1636.2277710999915,1637.8666016999923,1635.720916499995,1637.8666016999923,1637.8666016999923,1637.8666016999923,0.007320999997318722,0.013469500001519918,160,reward,1,[0.5004031999997096],[0.500406799998018],1638.3735483999917,1638.3735483999917,0.008625500006019138,0.008625500006019138,0.018149800001992844,0.05279500001051929,0.05981390000670217,0.10141630000725854,0.10836060000292491,1.004285400005756,1641.8664550999965,1646.1996415999893,,,,,,,,,,,,,,,,,,,,,,,,,,,,,14,C,2023-12-08_14h45.49.715,gca_avoidance_task,2022.2.4,143.8317053892403,
positions.xlsx,stimuli.xlsx,stimuli/Social1.png,stimuli/Social2.png,stimuli/Nonsocial2.png,stimuli/Nonsocial1.png,,"(0.7, 0.5)",cs_plus_s,,,,,0,0,0,0,,,,,,,,,3,4,52,2,,,,,,,,,,,,,,,,,,,,,,,,,,,,,,,,,,,,,,,,,,,,,,,,,,,,,,,,,,1646.7065463999897,1648.380090199993,1646.1996415999893,1648.380090199993,1648.380090199993,1648.380090199993,0.007011499998043291,0.013103099990985356,160,none,0,,,1653.386848299997,1653.386848299997,0.013605699990876019,0.013605699990876019,0.01986969998688437,0.05457219999516383,0.06144919998769183,0.1031619999994291,0.11011199999484234,1.0128114999970421,1656.8798210999958,1660.4352042999963,,,,,,,,,,,,,,,,,,,,,,,,,,,,,14,C,2023-12-08_14h45.49.715,gca_avoidance_task,2022.2.4,143.8317053892403,
positions.xlsx,stimuli.xlsx,stimuli/Social1.png,stimuli/Social2.png,stimuli/Nonsocial2.png,stimuli/Nonsocial1.png,,"(0.7, 0.5)",cs_minus_s,,,,,0,0,0,0,,,,,,,,,3,5,53,6,,,,,,,,,,,,,,,,,,,,,,,,,,,,,,,,,,,,,,,,,,,,,,,,,,,,,,,,,,1660.9420911999914,1662.9350683999946,1660.4352042999963,1662.9350683999946,1662.9350683999946,1662.9350683999946,0.006503299999167211,0.013174599997000769,165,reward,1,[0.5419442999991588],[0.5488283000013325],1663.4906226999883,1663.4906226999883,0.00751019999734126,0.00751019999734126,0.01830609999888111,0.05301099999633152,0.05996850000519771,0.10158200000296347,0.10851649999676738,1.0043027000065194,1666.9835746999888,1670.9556187999988,,,,,,,,,,,,,,,,,,,,,,,,,,,,,14,C,2023-12-08_14h45.49.715,gca_avoidance_task,2022.2.4,143.8317053892403,
positions.xlsx,stimuli.xlsx,stimuli/Social1.png,stimuli/Social2.png,stimuli/Nonsocial2.png,stimuli/Nonsocial1.png,,"(0.7, -0.5)",cs_plus_s,,,,,0,0,0,0,,,,,,,,,3,6,54,3,,,,,,,,,,,,,,,,,,,,,,,,,,,,,,,,,,,,,,,,,,,,,,,,,,,,,,,,,,1671.4625410000008,1672.6569257999945,1670.9556187999988,1672.6569257999945,1672.6569257999945,1672.6569257999945,0.007022199992206879,0.013039999990724027,165,shock,1,[0.38906190000125207],[0.39594239999132697],1673.0596825999964,1673.0596825999964,0.007596499999635853,0.007596499999635853,0.017801399997551925,0.05250330000126269,0.0594544999912614,0.1010870000027353,0.10802450000483077,1.003835399998934,1676.5526635999995,1680.2538895999896,,,,,,,,,,,,,,,,,,,,,,,,,,,,,14,C,2023-12-08_14h45.49.715,gca_avoidance_task,2022.2.4,143.8317053892403,
positions.xlsx,stimuli.xlsx,stimuli/Social1.png,stimuli/Social2.png,stimuli/Nonsocial2.png,stimuli/Nonsocial1.png,,"(0.7, -0.5)",cs_minus_ns,,,,,0,0,0,0,,,,,,,,,3,7,55,15,,,,,,,,,,,,,,,,,,,,,,,,,,,,,,,,,,,,,,,,,,,,,,,,,,,,,,,,,,1680.7607669999998,1682.3162688000011,1680.2538895999896,1682.3162688000011,1682.3162688000011,1682.3162688000011,0.007065300000249408,0.013143099989974871,170,reward,1,[0.7639306999917608],[0.7639343999908306],1683.0870783999999,1683.0870783999999,0.00787839999247808,0.00787839999247808,0.01844689999416005,0.053067999993800186,0.06007609999505803,0.10170379999908619,0.10869079999974929,1.00449629999639,1686.580060399996,1691.0034383999882,,,,,,,,,,,,,,,,,,,,,,,,,,,,,14,C,2023-12-08_14h45.49.715,gca_avoidance_task,2022.2.4,143.8317053892403,
positions.xlsx,stimuli.xlsx,stimuli/Social1.png,stimuli/Social2.png,stimuli/Nonsocial2.png,stimuli/Nonsocial1.png,,"(-0.7, 0.5)",cs_minus_ns,,,,,0,0,0,0,,,,,,,,,3,8,56,12,,,,,,,,,,,,,,,,,,,,,,,,,,,,,,,,,,,,,,,,,,,,,,,,,,,,,,,,,,1691.5103663999907,1692.690869500002,1691.0034383999882,1692.690869500002,1692.690869500002,1692.690869500002,0.007680499998969026,0.013483699993230402,175,reward,1,[0.48649809999915306],[0.48650179999822285],1693.1839616999932,1693.1839616999932,0.008578299995861016,0.008578299995861016,0.018578599992906675,0.05322790000354871,0.060190200005308725,0.10186870000325143,0.1088171000010334,1.004567700001644,1696.6768902999902,1700.2530734999891,,,,,,,,,,,,,,,,,,,,,,,,,,,,,14,C,2023-12-08_14h45.49.715,gca_avoidance_task,2022.2.4,143.8317053892403,
positions.xlsx,stimuli.xlsx,stimuli/Social1.png,stimuli/Social2.png,stimuli/Nonsocial2.png,stimuli/Nonsocial1.png,,"(0.7, -0.5)",cs_minus_s,,,,,0,0,0,0,,,,,,,,,3,9,57,7,,,,,,,,,,,,,,,,,,,,,,,,,,,,,,,,,,,,,,,,,,,,,,,,,,,,,,,,,,1700.760019399997,1702.3432708999899,1700.2530734999891,1702.3432708999899,1702.3432708999899,1702.3432708999899,0.006649200004176237,0.013262200009194203,180,reward,1,[0.5140628000081051],[0.5140666000079364],1702.8640866999922,1702.8640866999922,0.007361700001638383,0.007361700001638383,0.018370399993727915,0.053043599997181445,0.060021999990567565,0.10166010000102688,0.10859879999770783,1.0044155999930808,1706.3570664,1710.4263462999952,,,,,,,,,,,,,,,,,,,,,,,,,,,,,14,C,2023-12-08_14h45.49.715,gca_avoidance_task,2022.2.4,143.8317053892403,
positions.xlsx,stimuli.xlsx,stimuli/Social1.png,stimuli/Social2.png,stimuli/Nonsocial2.png,stimuli/Nonsocial1.png,,"(-0.7, 0.5)",cs_minus_s,,,,,0,0,0,0,,,,,,,,,3,10,58,4,,,,,,,,,,,,,,,,,,,,,,,,,,,,,,,,,,,,,,,,,,,,,,,,,,,,,,,,,,1710.9331973999942,1712.8706220000022,1710.4263462999952,1712.8706220000022,1712.8706220000022,1712.8706220000022,0.006924600005731918,0.013041700003668666,185,reward,1,[0.5557407000014791],[0.5557446000020718],1713.4331485000002,1713.4331485000002,0.007739499997114763,0.007739499997114763,0.018190999995567836,0.052890999999362975,0.059808599995449185,0.10143500000413042,0.10843870000098832,1.0042342999950051,1716.92606659999,1721.1620485999883,,,,,,,,,,,,,,,,,,,,,,,,,,,,,14,C,2023-12-08_14h45.49.715,gca_avoidance_task,2022.2.4,143.8317053892403,
positions.xlsx,stimuli.xlsx,stimuli/Social1.png,stimuli/Social2.png,stimuli/Nonsocial2.png,stimuli/Nonsocial1.png,,"(-0.7, 0.5)",cs_plus_ns,,,,,0,0,0,0,,,,,,,,,3,11,59,8,,,,,,,,,,,,,,,,,,,,,,,,,,,,,,,,,,,,,,,,,,,,,,,,,,,,,,,,,,1721.6689035000018,1722.8216256000014,1721.1620485999883,1722.8216256000014,1722.8216256000014,1722.8216256000014,0.0072321999905398116,0.013158999994629994,185,none,0,,,1727.828378899998,1727.828378899998,0.013684399993508123,0.013684399993508123,0.019923999992897734,0.054638399989926256,0.06165069999406114,0.10322349998750724,0.1101514999900246,1.0129157999908784,1731.321307399994,1734.9253762000008,,,,,,,,,,,,,,,,,,,,,,,,,,,,,14,C,2023-12-08_14h45.49.715,gca_avoidance_task,2022.2.4,143.8317053892403,
positions.xlsx,stimuli.xlsx,stimuli/Social1.png,stimuli/Social2.png,stimuli/Nonsocial2.png,stimuli/Nonsocial1.png,,"(0.7, -0.5)",cs_plus_ns,,,,,0,0,0,0,,,,,,,,,3,12,60,11,,,,,,,,,,,,,,,,,,,,,,,,,,,,,,,,,,,,,,,,,,,,,,,,,,,,,,,,,,1735.4322849000018,1736.550285099991,1734.9253762000008,1736.550285099991,1736.550285099991,1736.550285099991,0.006647799993515946,0.013107599996146746,185,none,0,,,1741.5570369999914,1741.5570369999914,0.01414699999440927,0.01414699999440927,0.01990069999010302,0.05454529999406077,0.061528699996415526,0.10310189999290742,0.11012349999509752,1.0128564999904484,1745.050000599993,1749.5498241999885,,,,,,,,,,,,,,,,,,,,,,,,,,,,,14,C,2023-12-08_14h45.49.715,gca_avoidance_task,2022.2.4,143.8317053892403,
positions.xlsx,stimuli.xlsx,stimuli/Social1.png,stimuli/Social2.png,stimuli/Nonsocial2.png,stimuli/Nonsocial1.png,,"(-0.7, -0.5)",cs_plus_s,,,,,0,0,0,0,,,,,,,,,3,13,61,1,,,,,,,,,,,,,,,,,,,,,,,,,,,,,,,,,,,,,,,,,,,,,,,,,,,,,,,,,,1750.0566499999986,1751.6538385999884,1749.5498241999885,1751.6538385999884,1751.6538385999884,1751.6538385999884,0.006190999993123114,0.013398299997788854,185,shock,1,[0.9030937999923481],[0.9030975999921793],1752.5565804999933,1752.5565804999933,0.006799800001317635,0.006799800001317635,0.011847399990074337,0.05347509999410249,0.060416099993744865,0.10214049999194685,0.10907510000106413,1.0048417999933008,1756.0565036999906,1760.0285660999944,,,,,,,,,,,,,,,,,,,,,,,,,,,,,14,C,2023-12-08_14h45.49.715,gca_avoidance_task,2022.2.4,143.8317053892403,
positions.xlsx,stimuli.xlsx,stimuli/Social1.png,stimuli/Social2.png,stimuli/Nonsocial2.png,stimuli/Nonsocial1.png,,"(-0.7, -0.5)",cs_minus_s,,,,,0,0,0,0,,,,,,,,,3,14,62,5,,,,,,,,,,,,,,,,,,,,,,,,,,,,,,,,,,,,,,,,,,,,,,,,,,,,,,,,,,1760.5354493999912,1762.3756773999921,1760.0285660999944,1762.3756773999921,1762.3756773999921,1762.3756773999921,0.005956599998171441,0.013127199999871664,190,reward,1,[0.5764577999943867],[0.5833631999994395],1762.9659022999986,1762.9659022999986,0.007313399997656234,0.007313399997656234,0.018705699985730462,0.05340689999866299,0.06040089999441989,0.10197469999548048,0.10894889998598956,1.0047464999952354,1766.4588241999882,1770.5489836999914,,,,,,,,,,,,,,,,,,,,,,,,,,,,,14,C,2023-12-08_14h45.49.715,gca_avoidance_task,2022.2.4,143.8317053892403,
positions.xlsx,stimuli.xlsx,stimuli/Social1.png,stimuli/Social2.png,stimuli/Nonsocial2.png,stimuli/Nonsocial1.png,,"(0.7, 0.5)",cs_plus_ns,,,,,0,0,0,0,,,,,,,,,3,15,63,10,,,,,,,,,,,,,,,,,,,,,,,,,,,,,,,,,,,,,,,,,,,,,,,,,,,,,,,,,,1771.055869799995,1772.7155455999891,1770.5489836999914,1772.7155455999891,1772.7155455999891,1772.7155455999891,0.0068943000078434125,0.013242900007753633,190,none,0,,,1777.729232400001,1777.729232400001,0.015169800011790358,0.015169800011790358,0.02691179999965243,0.05466800001158845,0.06159200001275167,0.103237800009083,0.11028410001017619,1.0129671000031522,1781.2152464999963,1785.228965000002,,,,,,,,,,,,,,,,,,,,,,,,,,,,,14,C,2023-12-08_14h45.49.715,gca_avoidance_task,2022.2.4,143.8317053892403,
positions.xlsx,stimuli.xlsx,stimuli/Social1.png,stimuli/Social2.png,stimuli/Nonsocial2.png,stimuli/Nonsocial1.png,,"(0.7, -0.5)",cs_plus_s,,,,,0,0,0,0,,,,,,,,,4,0,64,3,,,,,,,,,,,,,,,,,,,,,,,,,,,,,,,,,,,,,,,,,,,,,,,,,,,,,,,,,,1785.7358389,1787.3537938999943,1785.228965000002,1787.3537938999943,1787.3537938999943,1787.3537938999943,0.005997300002491102,0.013256400008685887,190,none,0,,,1792.360605199996,1792.360605199996,0.014885500000673346,0.014885500000673346,0.020046300007379614,0.05472390000068117,0.06168350001098588,0.10335580000537448,0.1103379000123823,1.0130168000032427,1795.8535580000025,1800.1242268999922,,,,,,,,,,,,,,,,,,,,,,,,,,,,,14,C,2023-12-08_14h45.49.715,gca_avoidance_task,2022.2.4,143.8317053892403,
positions.xlsx,stimuli.xlsx,stimuli/Social1.png,stimuli/Social2.png,stimuli/Nonsocial2.png,stimuli/Nonsocial1.png,,"(0.7, -0.5)",cs_minus_ns,,,,,0,0,0,0,,,,,,,,,4,1,65,15,,,,,,,,,,,,,,,,,,,,,,,,,,,,,,,,,,,,,,,,,,,,,,,,,,,,,,,,,,1800.6310793000011,1801.7213252999936,1800.1242268999922,1801.7213252999936,1801.7213252999936,1801.7213252999936,0.0071343000017805025,0.013403100005234592,195,reward,1,[0.6116865999938454],[0.6116904999944381],1802.3393652999948,1802.3393652999948,0.00875330000417307,0.00875330000417307,0.018076899999869056,0.05277040001237765,0.05972650001058355,0.10137340000073891,0.1083041000092635,1.004139500000747,1805.832291300001,1809.5127406999964,,,,,,,,,,,,,,,,,,,,,,,,,,,,,14,C,2023-12-08_14h45.49.715,gca_avoidance_task,2022.2.4,143.8317053892403,
positions.xlsx,stimuli.xlsx,stimuli/Social1.png,stimuli/Social2.png,stimuli/Nonsocial2.png,stimuli/Nonsocial1.png,,"(-0.7, 0.5)",cs_minus_ns,,,,,0,0,0,0,,,,,,,,,4,2,66,12,,,,,,,,,,,,,,,,,,,,,,,,,,,,,,,,,,,,,,,,,,,,,,,,,,,,,,,,,,1810.019638400001,1811.450119999994,1809.5127406999964,1811.450119999994,1811.450119999994,1811.450119999994,0.007303399994270876,0.013514599995687604,200,reward,1,[0.604807299998356],[0.6116121999948518],1812.0681369999947,1812.0681369999947,0.008319100001244806,0.008319100001244806,0.01843130000634119,0.05312169999524485,0.06010279999463819,0.10178420000011101,0.10870330000761896,1.004476500005694,1815.5611414000014,1819.6651163999923,,,,,,,,,,,,,,,,,,,,,,,,,,,,,14,C,2023-12-08_14h45.49.715,gca_avoidance_task,2022.2.4,143.8317053892403,
positions.xlsx,stimuli.xlsx,stimuli/Social1.png,stimuli/Social2.png,stimuli/Nonsocial2.png,stimuli/Nonsocial1.png,,"(0.7, 0.5)",cs_plus_ns,,,,,0,0,0,0,,,,,,,,,4,3,67,10,,,,,,,,,,,,,,,,,,,,,,,,,,,,,,,,,,,,,,,,,,,,,,,,,,,,,,,,,,1820.1720095999917,1821.6303426999948,1819.6651163999923,1821.6303426999948,1821.6303426999948,1821.6303426999948,0.007376000008662231,0.013126100006047636,200,shock,1,[3.2082340000051772],[3.2082406999979867],1824.8454477999912,1824.8454477999912,0.008365999994566664,0.008365999994566664,0.01875339999969583,0.053472699990379624,0.06042919999163132,0.10208820000116248,0.10904049999953713,1.004839200002607,1828.3383541999938,1832.3104565999965,,,,,,,,,,,,,,,,,,,,,,,,,,,,,14,C,2023-12-08_14h45.49.715,gca_avoidance_task,2022.2.4,143.8317053892403,
positions.xlsx,stimuli.xlsx,stimuli/Social1.png,stimuli/Social2.png,stimuli/Nonsocial2.png,stimuli/Nonsocial1.png,,"(-0.7, 0.5)",cs_minus_s,,,,,0,0,0,0,,,,,,,,,4,4,68,4,,,,,,,,,,,,,,,,,,,,,,,,,,,,,,,,,,,,,,,,,,,,,,,,,,,,,,,,,,1832.8173384999973,1834.1784163999982,1832.3104565999965,1834.1784163999982,1834.1784163999982,1834.1784163999982,0.00661979999858886,0.01311590000113938,205,reward,1,[0.5902690999937477],[0.590272699992056],1834.7756460999954,1834.7756460999954,0.0077271000045584515,0.0077271000045584515,0.018601300005684607,0.05324809999729041,0.06019610000657849,0.10182130000612233,0.10882599999604281,1.0046123000065563,1838.2685265999899,1841.8031705999892,,,,,,,,,,,,,,,,,,,,,,,,,,,,,14,C,2023-12-08_14h45.49.715,gca_avoidance_task,2022.2.4,143.8317053892403,
positions.xlsx,stimuli.xlsx,stimuli/Social1.png,stimuli/Social2.png,stimuli/Nonsocial2.png,stimuli/Nonsocial1.png,,"(-0.7, -0.5)",cs_minus_ns,,,,,0,0,0,0,,,,,,,,,4,5,69,13,,,,,,,,,,,,,,,,,,,,,,,,,,,,,,,,,,,,,,,,,,,,,,,,,,,,,,,,,,1842.3100399999967,1843.5113705999975,1841.8031705999892,1843.5113705999975,1843.5113705999975,1843.5113705999975,0.00740879999648314,0.01338259999465663,210,reward,1,[0.6113751000084449],[0.6113788000075147],1844.1294283000025,1844.1294283000025,0.008364699999219738,0.008364699999219738,0.01832220000505913,0.052888899997924455,0.059837499997229315,0.10147379999398254,0.10844889999134466,1.0043099000031361,1847.62232889999,1851.4069674999919,,,,,,,,,,,,,,,,,,,,,,,,,,,,,14,C,2023-12-08_14h45.49.715,gca_avoidance_task,2022.2.4,143.8317053892403,
