posFile,stimFile,cs_plus_s,cs_minus_s,cs_plus_ns,cs_minus_ns,stimtype,position,trialtype,trials_threshold.thisRepN,trials_threshold.thisTrialN,trials_threshold.thisN,trials_threshold.thisIndex,blocks.thisRepN,blocks.thisTrialN,blocks.thisN,blocks.thisIndex,ratingtrials1.thisRepN,ratingtrials1.thisTrialN,ratingtrials1.thisN,ratingtrials1.thisIndex,learning_trials.thisRepN,learning_trials.thisTrialN,learning_trials.thisN,learning_trials.thisIndex,trials.thisRepN,trials.thisTrialN,trials.thisN,trials.thisIndex,ratingtrials2.thisRepN,ratingtrials2.thisTrialN,ratingtrials2.thisN,ratingtrials2.thisIndex,testtrials.thisRepN,testtrials.thisTrialN,testtrials.thisN,testtrials.thisIndex,ratingtrials3.thisRepN,ratingtrials3.thisTrialN,ratingtrials3.thisN,ratingtrials3.thisIndex,textStart.started,sliderPainT.response,sliderPainT.rt,textStartExp.started,imageRating.started,sliderStim.response,sliderStim.rt,textStartTask.started,image.started,score,outcome,roi.numLooks,roi.timesOn,roi.timesOff,imageFeedback.started,sliderPain.response,sliderPain.rt,textTestInstr.started,imageTest.started,roiTest.numLooks,roiTest.timesOn,roiTest.timesOff,participant,group,date,expName,psychopyVersion,frameRate,
,,,,,,,,,0,0,0,0,,,,,,,,,,,,,,,,,,,,,,,,,,,,,14.805924999993294,0.0,4.753086199983954,,,,,,,,,,,,,,,,,,,,26,A,2023-12-14_10h23.12.507,gca_avoidance_task,2022.2.4,144.20712741247308,
,,,,,,,,,1,0,1,0,,,,,,,,,,,,,,,,,,,,,,,,,,,,,,0.0,7.34512569999788,,,,,,,,,,,,,,,,,,,,26,A,2023-12-14_10h23.12.507,gca_avoidance_task,2022.2.4,144.20712741247308,
,,,,,,,,,2,0,2,0,,,,,,,,,,,,,,,,,,,,,,,,,,,,,,0.0,2.1973551000701264,,,,,,,,,,,,,,,,,,,,26,A,2023-12-14_10h23.12.507,gca_avoidance_task,2022.2.4,144.20712741247308,
,,,,,,,,,3,0,3,0,,,,,,,,,,,,,,,,,,,,,,,,,,,,,,2.0,3.8535948999924585,,,,,,,,,,,,,,,,,,,,26,A,2023-12-14_10h23.12.507,gca_avoidance_task,2022.2.4,144.20712741247308,
,,,,,,,,,4,0,4,0,,,,,,,,,,,,,,,,,,,,,,,,,,,,,,2.0,2.0344698999542743,,,,,,,,,,,,,,,,,,,,26,A,2023-12-14_10h23.12.507,gca_avoidance_task,2022.2.4,144.20712741247308,
,,,,,,,,,5,0,5,0,,,,,,,,,,,,,,,,,,,,,,,,,,,,,,3.0,2.424939899938181,,,,,,,,,,,,,,,,,,,,26,A,2023-12-14_10h23.12.507,gca_avoidance_task,2022.2.4,144.20712741247308,
,,,,,,,,,6,0,6,0,,,,,,,,,,,,,,,,,,,,,,,,,,,,,,3.0,2.9864663999760523,,,,,,,,,,,,,,,,,,,,26,A,2023-12-14_10h23.12.507,gca_avoidance_task,2022.2.4,144.20712741247308,
,,,,,,,,,7,0,7,0,,,,,,,,,,,,,,,,,,,,,,,,,,,,,,4.0,3.4285999999847263,,,,,,,,,,,,,,,,,,,,26,A,2023-12-14_10h23.12.507,gca_avoidance_task,2022.2.4,144.20712741247308,
,,,,,,,,,8,0,8,0,,,,,,,,,,,,,,,,,,,,,,,,,,,,,,4.0,3.739032799960114,,,,,,,,,,,,,,,,,,,,26,A,2023-12-14_10h23.12.507,gca_avoidance_task,2022.2.4,144.20712741247308,
,,,,,,,,,9,0,9,0,,,,,,,,,,,,,,,,,,,,,,,,,,,,,,5.0,1.5309314000187442,,,,,,,,,,,,,,,,,,,,26,A,2023-12-14_10h23.12.507,gca_avoidance_task,2022.2.4,144.20712741247308,
,,,,,,,,,10,0,10,0,,,,,,,,,,,,,,,,,,,,,,,,,,,,,,5.0,5.713370200013742,,,,,,,,,,,,,,,,,,,,26,A,2023-12-14_10h23.12.507,gca_avoidance_task,2022.2.4,144.20712741247308,
,,,,,,,,,11,0,11,0,,,,,,,,,,,,,,,,,,,,,,,,,,,,,,6.0,1.7490087000187486,,,,,,,,,,,,,,,,,,,,26,A,2023-12-14_10h23.12.507,gca_avoidance_task,2022.2.4,144.20712741247308,
,,,,,,,,,12,0,12,0,,,,,,,,,,,,,,,,,,,,,,,,,,,,,,5.0,2.332712300005369,,,,,,,,,,,,,,,,,,,,26,A,2023-12-14_10h23.12.507,gca_avoidance_task,2022.2.4,144.20712741247308,
,,,,,,,,,13,0,13,0,,,,,,,,,,,,,,,,,,,,,,,,,,,,,,5.0,4.353849899955094,,,,,,,,,,,,,,,,,,,,26,A,2023-12-14_10h23.12.507,gca_avoidance_task,2022.2.4,144.20712741247308,
,,,,,,,,,14,0,14,0,,,,,,,,,,,,,,,,,,,,,,,,,,,,,,6.0,1.5417160000652075,,,,,,,,,,,,,,,,,,,,26,A,2023-12-14_10h23.12.507,gca_avoidance_task,2022.2.4,144.20712741247308,
,,,,,,,,,15,0,15,0,,,,,,,,,,,,,,,,,,,,,,,,,,,,,,6.0,1.9441644999897107,,,,,,,,,,,,,,,,,,,,26,A,2023-12-14_10h23.12.507,gca_avoidance_task,2022.2.4,144.20712741247308,
,,,,,,,,,16,0,16,0,,,,,,,,,,,,,,,,,,,,,,,,,,,,,,6.0,2.2396511000115424,,,,,,,,,,,,,,,,,,,,26,A,2023-12-14_10h23.12.507,gca_avoidance_task,2022.2.4,144.20712741247308,
,,,,,,,,,17,0,17,0,,,,,,,,,,,,,,,,,,,,,,,,,,,,,,6.0,3.2928392000030726,,,,,,,,,,,,,,,,,,,,26,A,2023-12-14_10h23.12.507,gca_avoidance_task,2022.2.4,144.20712741247308,
,,,,,,,,,18,0,18,0,,,,,,,,,,,,,,,,,,,,,,,,,,,,,,6.0,1.7935618000337854,,,,,,,,,,,,,,,,,,,,26,A,2023-12-14_10h23.12.507,gca_avoidance_task,2022.2.4,144.20712741247308,
,,,,,,,,,19,0,19,0,,,,,,,,,,,,,,,,,,,,,,,,,,,,,,7.0,3.189466599957086,,,,,,,,,,,,,,,,,,,,26,A,2023-12-14_10h23.12.507,gca_avoidance_task,2022.2.4,144.20712741247308,
,,,,,,,,,20,0,20,0,,,,,,,,,,,,,,,,,,,,,,,,,,,,,,6.0,1.2897711000405252,,,,,,,,,,,,,,,,,,,,26,A,2023-12-14_10h23.12.507,gca_avoidance_task,2022.2.4,144.20712741247308,
positions.xlsx,stimuli.xlsx,stimuli/Social1.png,stimuli/Social2.png,stimuli/Nonsocial1.png,stimuli/Nonsocial2.png,cs_plus_ns,,,,,,,0,0,0,0,0,0,0,1,,,,,,,,,,,,,,,,,,,,,,,,377.6141772000119,389.38530309998896,4.0,6.924841100000776,,,,,,,,,,,,,,,,26,A,2023-12-14_10h23.12.507,gca_avoidance_task,2022.2.4,144.20712741247308,
positions.xlsx,stimuli.xlsx,stimuli/Social1.png,stimuli/Social2.png,stimuli/Nonsocial1.png,stimuli/Nonsocial2.png,cs_minus_s,,,,,,,0,0,0,0,0,1,1,2,,,,,,,,,,,,,,,,,,,,,,,,,398.1626869000029,6.0,2.829579700017348,,,,,,,,,,,,,,,,26,A,2023-12-14_10h23.12.507,gca_avoidance_task,2022.2.4,144.20712741247308,
positions.xlsx,stimuli.xlsx,stimuli/Social1.png,stimuli/Social2.png,stimuli/Nonsocial1.png,stimuli/Nonsocial2.png,cs_plus_s,,,,,,,0,0,0,0,0,2,2,0,,,,,,,,,,,,,,,,,,,,,,,,,402.0583889000118,6.0,2.837634800001979,,,,,,,,,,,,,,,,26,A,2023-12-14_10h23.12.507,gca_avoidance_task,2022.2.4,144.20712741247308,
positions.xlsx,stimuli.xlsx,stimuli/Social1.png,stimuli/Social2.png,stimuli/Nonsocial1.png,stimuli/Nonsocial2.png,cs_minus_ns,,,,,,,0,0,0,0,0,3,3,3,,,,,,,,,,,,,,,,,,,,,,,,,405.93324020004366,4.0,5.217199000064284,,,,,,,,,,,,,,,,26,A,2023-12-14_10h23.12.507,gca_avoidance_task,2022.2.4,144.20712741247308,
positions.xlsx,stimuli.xlsx,stimuli/Social1.png,stimuli/Social2.png,stimuli/Nonsocial1.png,stimuli/Nonsocial2.png,,"(0.7, 0.5)",cs_minus_ns,,,,,0,0,0,0,,,,,0,0,0,14,,,,,,,,,,,,,,,,,,,,,,,,412.38439320004545,430.96002610004507,5,reward,1,0.2291001999983564,0.22910390002653003,431.20305550005287,,,,,,,,26,A,2023-12-14_10h23.12.507,gca_avoidance_task,2022.2.4,144.20712741247308,
positions.xlsx,stimuli.xlsx,stimuli/Social1.png,stimuli/Social2.png,stimuli/Nonsocial1.png,stimuli/Nonsocial2.png,,"(0.7, -0.5)",cs_plus_ns,,,,,0,0,0,0,,,,,0,1,1,11,,,,,,,,,,,,,,,,,,,,,,,,,440.91795589996036,5,shock,1,0.39653939998243004,0.3965430000098422,441.3207080999855,,,,,,,,26,A,2023-12-14_10h23.12.507,gca_avoidance_task,2022.2.4,144.20712741247308,
positions.xlsx,stimuli.xlsx,stimuli/Social1.png,stimuli/Social2.png,stimuli/Nonsocial1.png,stimuli/Nonsocial2.png,,"(0.7, 0.5)",cs_plus_s,,,,,0,0,0,0,,,,,0,2,2,2,,,,,,,,,,,,,,,,,,,,,,,,,450.4453650000505,5,shock,1,0.44496069999877363,0.44496440002694726,450.8967032999499,,,,,,,,26,A,2023-12-14_10h23.12.507,gca_avoidance_task,2022.2.4,144.20712741247308,
positions.xlsx,stimuli.xlsx,stimuli/Social1.png,stimuli/Social2.png,stimuli/Nonsocial1.png,stimuli/Nonsocial2.png,,"(-0.7, 0.5)",cs_plus_ns,,,,,0,0,0,0,,,,,0,3,3,8,,,,,,,,,,,,,,,,,,,,,,,,,460.44491780002136,5,shock,1,0.514306899975054,0.5143106000032276,460.965752899996,,,,,,,,26,A,2023-12-14_10h23.12.507,gca_avoidance_task,2022.2.4,144.20712741247308,
positions.xlsx,stimuli.xlsx,stimuli/Social1.png,stimuli/Social2.png,stimuli/Nonsocial1.png,stimuli/Nonsocial2.png,,"(0.7, -0.5)",cs_minus_s,,,,,0,0,0,0,,,,,0,4,4,7,,,,,,,,,,,,,,,,,,,,,,,,,470.7848120999988,10,reward,1,0.5278581000166014,0.5278616000432521,471.3195097000571,,,,,,,,26,A,2023-12-14_10h23.12.507,gca_avoidance_task,2022.2.4,144.20712741247308,
positions.xlsx,stimuli.xlsx,stimuli/Social1.png,stimuli/Social2.png,stimuli/Nonsocial1.png,stimuli/Nonsocial2.png,,"(0.7, -0.5)",cs_plus_s,,,,,0,0,0,0,,,,,0,5,5,3,,,,,,,,,,,,,,,,,,,,,,,,,480.02055669995025,10,none,0,,,485.0342451999895,,,,,,,,26,A,2023-12-14_10h23.12.507,gca_avoidance_task,2022.2.4,144.20712741247308,
positions.xlsx,stimuli.xlsx,stimuli/Social1.png,stimuli/Social2.png,stimuli/Nonsocial1.png,stimuli/Nonsocial2.png,,"(-0.7, 0.5)",cs_minus_s,,,,,0,0,0,0,,,,,0,6,6,4,,,,,,,,,,,,,,,,,,,,,,,,,494.8671886000084,15,reward,1,0.6460587000474334,0.6460623999591917,495.5199369000038,,,,,,,,26,A,2023-12-14_10h23.12.507,gca_avoidance_task,2022.2.4,144.20712741247308,
positions.xlsx,stimuli.xlsx,stimuli/Social1.png,stimuli/Social2.png,stimuli/Nonsocial1.png,stimuli/Nonsocial2.png,,"(-0.7, -0.5)",cs_plus_s,,,,,0,0,0,0,,,,,0,7,7,1,,,,,,,,,,,,,,,,,,,,,,,,,505.0195663999766,15,none,0,,,510.02632529998664,,,,,,,,26,A,2023-12-14_10h23.12.507,gca_avoidance_task,2022.2.4,144.20712741247308,
positions.xlsx,stimuli.xlsx,stimuli/Social1.png,stimuli/Social2.png,stimuli/Nonsocial1.png,stimuli/Nonsocial2.png,,"(-0.7, 0.5)",cs_minus_ns,,,,,0,0,0,0,,,,,0,8,8,12,,,,,,,,,,,,,,,,,,,,,,,,,519.8592842000071,20,reward,1,0.48623850010335445,0.4862423000158742,520.3592304999474,,,,,,,,26,A,2023-12-14_10h23.12.507,gca_avoidance_task,2022.2.4,144.20712741247308,
positions.xlsx,stimuli.xlsx,stimuli/Social1.png,stimuli/Social2.png,stimuli/Nonsocial1.png,stimuli/Nonsocial2.png,,"(-0.7, -0.5)",cs_minus_s,,,,,0,0,0,0,,,,,0,9,9,5,,,,,,,,,,,,,,,,,,,,,,,,,529.2408658999484,25,reward,1,0.6180434999987483,0.6180473000276834,529.8658242999809,,,,,,,,26,A,2023-12-14_10h23.12.507,gca_avoidance_task,2022.2.4,144.20712741247308,
positions.xlsx,stimuli.xlsx,stimuli/Social1.png,stimuli/Social2.png,stimuli/Nonsocial1.png,stimuli/Nonsocial2.png,,"(0.7, 0.5)",cs_plus_ns,,,,,0,0,0,0,,,,,0,10,10,10,,,,,,,,,,,,,,,,,,,,,,,,,539.3515606999863,25,none,0,,,544.3652698999504,,,,,,,,26,A,2023-12-14_10h23.12.507,gca_avoidance_task,2022.2.4,144.20712741247308,
positions.xlsx,stimuli.xlsx,stimuli/Social1.png,stimuli/Social2.png,stimuli/Nonsocial1.png,stimuli/Nonsocial2.png,,"(0.7, -0.5)",cs_minus_ns,,,,,0,0,0,0,,,,,0,11,11,15,,,,,,,,,,,,,,,,,,,,,,,,,553.6356960999547,30,reward,1,0.6808843999169767,0.6808880999451503,554.3231949999463,,,,,,,,26,A,2023-12-14_10h23.12.507,gca_avoidance_task,2022.2.4,144.20712741247308,
positions.xlsx,stimuli.xlsx,stimuli/Social1.png,stimuli/Social2.png,stimuli/Nonsocial1.png,stimuli/Nonsocial2.png,,"(0.7, 0.5)",cs_minus_s,,,,,0,0,0,0,,,,,0,12,12,6,,,,,,,,,,,,,,,,,,,,,,,,,563.7394755999558,35,reward,1,0.8402655000099912,0.8402691000374034,564.5866741000209,,,,,,,,26,A,2023-12-14_10h23.12.507,gca_avoidance_task,2022.2.4,144.20712741247308,
positions.xlsx,stimuli.xlsx,stimuli/Social1.png,stimuli/Social2.png,stimuli/Nonsocial1.png,stimuli/Nonsocial2.png,,"(-0.7, -0.5)",cs_minus_ns,,,,,0,0,0,0,,,,,0,13,13,13,,,,,,,,,,,,,,,,,,,,,,,,,573.9126661999617,40,reward,1,0.17359230003785342,0.17359589994885027,574.0932418999728,,,,,,,,26,A,2023-12-14_10h23.12.507,gca_avoidance_task,2022.2.4,144.20712741247308,
positions.xlsx,stimuli.xlsx,stimuli/Social1.png,stimuli/Social2.png,stimuli/Nonsocial1.png,stimuli/Nonsocial2.png,,"(-0.7, -0.5)",cs_plus_ns,,,,,0,0,0,0,,,,,0,14,14,9,,,,,,,,,,,,,,,,,,,,,,,,,584.1483838000568,40,none,0,,,589.1551183999982,,,,,,,,26,A,2023-12-14_10h23.12.507,gca_avoidance_task,2022.2.4,144.20712741247308,
positions.xlsx,stimuli.xlsx,stimuli/Social1.png,stimuli/Social2.png,stimuli/Nonsocial1.png,stimuli/Nonsocial2.png,,"(-0.7, 0.5)",cs_plus_s,,,,,0,0,0,0,,,,,0,15,15,0,,,,,,,,,,,,,,,,,,,,,,,,,598.3630898999982,40,none,0,,,603.3698328000028,,,,,,,,26,A,2023-12-14_10h23.12.507,gca_avoidance_task,2022.2.4,144.20712741247308,
positions.xlsx,stimuli.xlsx,stimuli/Social1.png,stimuli/Social2.png,stimuli/Nonsocial1.png,stimuli/Nonsocial2.png,,"(0.7, -0.5)",cs_plus_s,,,,,0,0,0,0,,,,,1,0,16,3,,,,,,,,,,,,,,,,,,,,,,,,,612.0778377000242,40,none,0,,,617.0845714999596,,,,,,,,26,A,2023-12-14_10h23.12.507,gca_avoidance_task,2022.2.4,144.20712741247308,
positions.xlsx,stimuli.xlsx,stimuli/Social1.png,stimuli/Social2.png,stimuli/Nonsocial1.png,stimuli/Nonsocial2.png,,"(0.7, -0.5)",cs_plus_ns,,,,,0,0,0,0,,,,,1,1,17,11,,,,,,,,,,,,,,,,,,,,,,,,,626.2925369000295,40,shock,1,0.5209689000621438,0.5209728000918403,626.820336899953,,,,,,,,26,A,2023-12-14_10h23.12.507,gca_avoidance_task,2022.2.4,144.20712741247308,
positions.xlsx,stimuli.xlsx,stimuli/Social1.png,stimuli/Social2.png,stimuli/Nonsocial1.png,stimuli/Nonsocial2.png,,"(0.7, 0.5)",cs_plus_ns,,,,,0,0,0,0,,,,,1,2,18,10,,,,,,,,,,,,,,,,,,,,,,,,,635.7644053000258,40,none,0,,,640.7711560999742,,,,,,,,26,A,2023-12-14_10h23.12.507,gca_avoidance_task,2022.2.4,144.20712741247308,
positions.xlsx,stimuli.xlsx,stimuli/Social1.png,stimuli/Social2.png,stimuli/Nonsocial1.png,stimuli/Nonsocial2.png,,"(0.7, -0.5)",cs_minus_ns,,,,,0,0,0,0,,,,,1,3,19,15,,,,,,,,,,,,,,,,,,,,,,,,,650.270765400026,45,reward,1,0.6252111000940204,0.6252148000057787,650.9026683999691,,,,,,,,26,A,2023-12-14_10h23.12.507,gca_avoidance_task,2022.2.4,144.20712741247308,
positions.xlsx,stimuli.xlsx,stimuli/Social1.png,stimuli/Social2.png,stimuli/Nonsocial1.png,stimuli/Nonsocial2.png,,"(-0.7, -0.5)",cs_plus_ns,,,,,0,0,0,0,,,,,1,4,20,9,,,,,,,,,,,,,,,,,,,,,,,,,660.6384031999623,45,shock,1,0.26434890006203204,0.26435259997379035,660.9092470000032,,,,,,,,26,A,2023-12-14_10h23.12.507,gca_avoidance_task,2022.2.4,144.20712741247308,
positions.xlsx,stimuli.xlsx,stimuli/Social1.png,stimuli/Social2.png,stimuli/Nonsocial1.png,stimuli/Nonsocial2.png,,"(-0.7, 0.5)",cs_minus_s,,,,,0,0,0,0,,,,,1,5,21,4,,,,,,,,,,,,,,,,,,,,,,,,,670.374170999974,50,reward,1,1.284921700018458,1.2849253999302164,671.6657447000034,,,,,,,,26,A,2023-12-14_10h23.12.507,gca_avoidance_task,2022.2.4,144.20712741247308,
positions.xlsx,stimuli.xlsx,stimuli/Social1.png,stimuli/Social2.png,stimuli/Nonsocial1.png,stimuli/Nonsocial2.png,,"(-0.7, -0.5)",cs_plus_s,,,,,0,0,0,0,,,,,1,6,22,1,,,,,,,,,,,,,,,,,,,,,,,,,681.2834189999849,50,none,0,,,686.2832334999694,,,,,,,,26,A,2023-12-14_10h23.12.507,gca_avoidance_task,2022.2.4,144.20712741247308,
positions.xlsx,stimuli.xlsx,stimuli/Social1.png,stimuli/Social2.png,stimuli/Nonsocial1.png,stimuli/Nonsocial2.png,,"(-0.7, 0.5)",cs_plus_s,,,,,0,0,0,0,,,,,1,7,23,0,,,,,,,,,,,,,,,,,,,,,,,,,695.6925643000286,50,none,0,,,700.6993157999823,,,,,,,,26,A,2023-12-14_10h23.12.507,gca_avoidance_task,2022.2.4,144.20712741247308,
positions.xlsx,stimuli.xlsx,stimuli/Social1.png,stimuli/Social2.png,stimuli/Nonsocial1.png,stimuli/Nonsocial2.png,,"(-0.7, -0.5)",cs_minus_ns,,,,,0,0,0,0,,,,,1,8,24,13,,,,,,,,,,,,,,,,,,,,,,,,,710.796148500056,55,reward,1,0.5835538000101224,0.5835576999234036,711.3864153999602,,,,,,,,26,A,2023-12-14_10h23.12.507,gca_avoidance_task,2022.2.4,144.20712741247308,
positions.xlsx,stimuli.xlsx,stimuli/Social1.png,stimuli/Social2.png,stimuli/Nonsocial1.png,stimuli/Nonsocial2.png,,"(-0.7, -0.5)",cs_minus_s,,,,,0,0,0,0,,,,,1,9,25,5,,,,,,,,,,,,,,,,,,,,,,,,,721.4901576000266,60,reward,1,0.9169187999796122,0.9169225000077859,722.4137078999775,,,,,,,,26,A,2023-12-14_10h23.12.507,gca_avoidance_task,2022.2.4,144.20712741247308,
positions.xlsx,stimuli.xlsx,stimuli/Social1.png,stimuli/Social2.png,stimuli/Nonsocial1.png,stimuli/Nonsocial2.png,,"(0.7, -0.5)",cs_minus_s,,,,,0,0,0,0,,,,,1,10,26,7,,,,,,,,,,,,,,,,,,,,,,,,,732.5244802000234,65,reward,1,0.7162062000716105,0.7162098999833688,733.2466273000464,,,,,,,,26,A,2023-12-14_10h23.12.507,gca_avoidance_task,2022.2.4,144.20712741247308,
positions.xlsx,stimuli.xlsx,stimuli/Social1.png,stimuli/Social2.png,stimuli/Nonsocial1.png,stimuli/Nonsocial2.png,,"(0.7, 0.5)",cs_minus_s,,,,,0,0,0,0,,,,,1,11,27,6,,,,,,,,,,,,,,,,,,,,,,,,,743.6351285000565,70,reward,1,0.5696146000409499,0.569618400069885,744.2114858999848,,,,,,,,26,A,2023-12-14_10h23.12.507,gca_avoidance_task,2022.2.4,144.20712741247308,
positions.xlsx,stimuli.xlsx,stimuli/Social1.png,stimuli/Social2.png,stimuli/Nonsocial1.png,stimuli/Nonsocial2.png,,"(-0.7, 0.5)",cs_minus_ns,,,,,0,0,0,0,,,,,1,12,28,12,,,,,,,,,,,,,,,,,,,,,,,,,753.579222899978,75,reward,1,0.5624719000188634,0.562475600047037,754.1486047999933,,,,,,,,26,A,2023-12-14_10h23.12.507,gca_avoidance_task,2022.2.4,144.20712741247308,
positions.xlsx,stimuli.xlsx,stimuli/Social1.png,stimuli/Social2.png,stimuli/Nonsocial1.png,stimuli/Nonsocial2.png,,"(0.7, 0.5)",cs_plus_s,,,,,0,0,0,0,,,,,1,13,29,2,,,,,,,,,,,,,,,,,,,,,,,,,763.7454414999811,75,none,0,,,768.7591433000052,,,,,,,,26,A,2023-12-14_10h23.12.507,gca_avoidance_task,2022.2.4,144.20712741247308,
positions.xlsx,stimuli.xlsx,stimuli/Social1.png,stimuli/Social2.png,stimuli/Nonsocial1.png,stimuli/Nonsocial2.png,,"(0.7, 0.5)",cs_minus_ns,,,,,0,0,0,0,,,,,1,14,30,14,,,,,,,,,,,,,,,,,,,,,,,,,778.2379055999918,80,reward,1,0.7366116000339389,0.736615400062874,778.9809335999889,,,,,,,,26,A,2023-12-14_10h23.12.507,gca_avoidance_task,2022.2.4,144.20712741247308,
positions.xlsx,stimuli.xlsx,stimuli/Social1.png,stimuli/Social2.png,stimuli/Nonsocial1.png,stimuli/Nonsocial2.png,,"(-0.7, 0.5)",cs_plus_ns,,,,,0,0,0,0,,,,,1,15,31,8,,,,,,,,,,,,,,,,,,,,,,,,,788.1403656000039,80,none,0,,,793.1470732999733,,,,,,,,26,A,2023-12-14_10h23.12.507,gca_avoidance_task,2022.2.4,144.20712741247308,
positions.xlsx,stimuli.xlsx,stimuli/Social1.png,stimuli/Social2.png,stimuli/Nonsocial1.png,stimuli/Nonsocial2.png,,"(-0.7, 0.5)",cs_plus_ns,,,,,0,0,0,0,,,,,,,,,0,0,0,8,,,,,,,,,,,,,,,,,,,,,814.1462101000361,80,none,0,,,819.1529634000035,,,,,,,,26,A,2023-12-14_10h23.12.507,gca_avoidance_task,2022.2.4,144.20712741247308,
positions.xlsx,stimuli.xlsx,stimuli/Social1.png,stimuli/Social2.png,stimuli/Nonsocial1.png,stimuli/Nonsocial2.png,,"(0.7, -0.5)",cs_minus_ns,,,,,0,0,0,0,,,,,,,,,0,1,1,15,,,,,,,,,,,,,,,,,,,,,829.0692382999696,85,reward,1,0.47941799997352064,0.4794213999994099,829.555338999955,,,,,,,,26,A,2023-12-14_10h23.12.507,gca_avoidance_task,2022.2.4,144.20712741247308,
positions.xlsx,stimuli.xlsx,stimuli/Social1.png,stimuli/Social2.png,stimuli/Nonsocial1.png,stimuli/Nonsocial2.png,,"(-0.7, -0.5)",cs_plus_ns,,,,,0,0,0,0,,,,,,,,,0,2,2,9,,,,,,,,,,,,,,,,,,,,,839.0966204999713,85,none,0,,,844.1103140000487,,,,,,,,26,A,2023-12-14_10h23.12.507,gca_avoidance_task,2022.2.4,144.20712741247308,
positions.xlsx,stimuli.xlsx,stimuli/Social1.png,stimuli/Social2.png,stimuli/Nonsocial1.png,stimuli/Nonsocial2.png,,"(0.7, 0.5)",cs_minus_s,,,,,0,0,0,0,,,,,,,,,0,3,3,6,,,,,,,,,,,,,,,,,,,,,853.3669042000547,90,reward,1,0.8266936000436544,0.8266972000710666,854.2001864999766,,,,,,,,26,A,2023-12-14_10h23.12.507,gca_avoidance_task,2022.2.4,144.20712741247308,
positions.xlsx,stimuli.xlsx,stimuli/Social1.png,stimuli/Social2.png,stimuli/Nonsocial1.png,stimuli/Nonsocial2.png,,"(-0.7, 0.5)",cs_minus_ns,,,,,0,0,0,0,,,,,,,,,0,4,4,12,,,,,,,,,,,,,,,,,,,,,863.7623231000034,95,reward,1,0.5421671000076458,0.5421707999194041,864.3109123000177,,,,,,,,26,A,2023-12-14_10h23.12.507,gca_avoidance_task,2022.2.4,144.20712741247308,
positions.xlsx,stimuli.xlsx,stimuli/Social1.png,stimuli/Social2.png,stimuli/Nonsocial1.png,stimuli/Nonsocial2.png,,"(0.7, -0.5)",cs_plus_ns,,,,,0,0,0,0,,,,,,,,,0,5,5,11,,,,,,,,,,,,,,,,,,,,,873.9147085000295,95,none,0,,,878.9214695000555,,,,,,,,26,A,2023-12-14_10h23.12.507,gca_avoidance_task,2022.2.4,144.20712741247308,
positions.xlsx,stimuli.xlsx,stimuli/Social1.png,stimuli/Social2.png,stimuli/Nonsocial1.png,stimuli/Nonsocial2.png,,"(0.7, 0.5)",cs_plus_ns,,,,,0,0,0,0,,,,,,,,,0,6,6,10,,,,,,,,,,,,,,,,,,,,,888.7196802999824,95,none,0,,,893.7264891000232,,,,,,,,26,A,2023-12-14_10h23.12.507,gca_avoidance_task,2022.2.4,144.20712741247308,
positions.xlsx,stimuli.xlsx,stimuli/Social1.png,stimuli/Social2.png,stimuli/Nonsocial1.png,stimuli/Nonsocial2.png,,"(0.7, -0.5)",cs_minus_s,,,,,0,0,0,0,,,,,,,,,0,7,7,7,,,,,,,,,,,,,,,,,,,,,903.5732391000492,100,reward,1,0.5349794999929145,0.5349832000210881,904.1148577999556,,,,,,,,26,A,2023-12-14_10h23.12.507,gca_avoidance_task,2022.2.4,144.20712741247308,
positions.xlsx,stimuli.xlsx,stimuli/Social1.png,stimuli/Social2.png,stimuli/Nonsocial1.png,stimuli/Nonsocial2.png,,"(-0.7, -0.5)",cs_minus_s,,,,,0,0,0,0,,,,,,,,,0,8,8,5,,,,,,,,,,,,,,,,,,,,,914.2950393999927,105,reward,1,0.2981269999872893,0.29813050001394004,914.6006114999764,,,,,,,,26,A,2023-12-14_10h23.12.507,gca_avoidance_task,2022.2.4,144.20712741247308,
positions.xlsx,stimuli.xlsx,stimuli/Social1.png,stimuli/Social2.png,stimuli/Nonsocial1.png,stimuli/Nonsocial2.png,,"(-0.7, 0.5)",cs_plus_s,,,,,0,0,0,0,,,,,,,,,0,9,9,0,,,,,,,,,,,,,,,,,,,,,924.357156699989,105,shock,1,0.25025090004783124,0.2502545000752434,924.6141074999468,,,,,,,,26,A,2023-12-14_10h23.12.507,gca_avoidance_task,2022.2.4,144.20712741247308,
positions.xlsx,stimuli.xlsx,stimuli/Social1.png,stimuli/Social2.png,stimuli/Nonsocial1.png,stimuli/Nonsocial2.png,,"(0.7, 0.5)",cs_minus_ns,,,,,0,0,0,0,,,,,,,,,0,10,10,14,,,,,,,,,,,,,,,,,,,,,934.5789607999614,110,reward,1,0.6597397000296041,0.6597434000577778,935.2456002000254,,,,,,,,26,A,2023-12-14_10h23.12.507,gca_avoidance_task,2022.2.4,144.20712741247308,
positions.xlsx,stimuli.xlsx,stimuli/Social1.png,stimuli/Social2.png,stimuli/Nonsocial1.png,stimuli/Nonsocial2.png,,"(-0.7, 0.5)",cs_minus_s,,,,,0,0,0,0,,,,,,,,,0,11,11,4,,,,,,,,,,,,,,,,,,,,,944.9605120000197,115,reward,1,0.7086414999794215,0.7086451000068337,945.6757774000289,,,,,,,,26,A,2023-12-14_10h23.12.507,gca_avoidance_task,2022.2.4,144.20712741247308,
positions.xlsx,stimuli.xlsx,stimuli/Social1.png,stimuli/Social2.png,stimuli/Nonsocial1.png,stimuli/Nonsocial2.png,,"(0.7, -0.5)",cs_plus_s,,,,,0,0,0,0,,,,,,,,,0,12,12,3,,,,,,,,,,,,,,,,,,,,,955.0017926000291,115,none,0,,,960.0085100999568,,,,,,,,26,A,2023-12-14_10h23.12.507,gca_avoidance_task,2022.2.4,144.20712741247308,
positions.xlsx,stimuli.xlsx,stimuli/Social1.png,stimuli/Social2.png,stimuli/Nonsocial1.png,stimuli/Nonsocial2.png,,"(-0.7, -0.5)",cs_minus_ns,,,,,0,0,0,0,,,,,,,,,0,13,13,13,,,,,,,,,,,,,,,,,,,,,968.9942828000057,120,reward,1,0.5488914001034573,0.5558255000505596,969.5567696000217,,,,,,,,26,A,2023-12-14_10h23.12.507,gca_avoidance_task,2022.2.4,144.20712741247308,
positions.xlsx,stimuli.xlsx,stimuli/Social1.png,stimuli/Social2.png,stimuli/Nonsocial1.png,stimuli/Nonsocial2.png,,"(-0.7, -0.5)",cs_plus_s,,,,,0,0,0,0,,,,,,,,,0,14,14,1,,,,,,,,,,,,,,,,,,,,,978.8827796999831,120,none,0,,,983.8895442000357,,,,,,,,26,A,2023-12-14_10h23.12.507,gca_avoidance_task,2022.2.4,144.20712741247308,
positions.xlsx,stimuli.xlsx,stimuli/Social1.png,stimuli/Social2.png,stimuli/Nonsocial1.png,stimuli/Nonsocial2.png,,"(0.7, 0.5)",cs_plus_s,,,,,0,0,0,0,,,,,,,,,0,15,15,2,,,,,,,,,,,,,,,,,,,,,993.4724830000196,120,shock,1,0.6252651000395417,0.6252689999528229,994.1043997999514,,,,,,,,26,A,2023-12-14_10h23.12.507,gca_avoidance_task,2022.2.4,144.20712741247308,
positions.xlsx,stimuli.xlsx,stimuli/Social1.png,stimuli/Social2.png,stimuli/Nonsocial1.png,stimuli/Nonsocial2.png,,"(0.7, -0.5)",cs_plus_s,,,,,0,0,0,0,,,,,,,,,1,0,16,3,,,,,,,,,,,,,,,,,,,,,1003.8609732999466,120,none,0,,,1008.8677098000189,,,,,,,,26,A,2023-12-14_10h23.12.507,gca_avoidance_task,2022.2.4,144.20712741247308,
positions.xlsx,stimuli.xlsx,stimuli/Social1.png,stimuli/Social2.png,stimuli/Nonsocial1.png,stimuli/Nonsocial2.png,,"(-0.7, 0.5)",cs_minus_ns,,,,,0,0,0,0,,,,,,,,,1,1,17,12,,,,,,,,,,,,,,,,,,,,,1017.8257080999902,125,reward,1,0.6182429000036791,0.6182468000333756,1018.4506807000143,,,,,,,,26,A,2023-12-14_10h23.12.507,gca_avoidance_task,2022.2.4,144.20712741247308,
positions.xlsx,stimuli.xlsx,stimuli/Social1.png,stimuli/Social2.png,stimuli/Nonsocial1.png,stimuli/Nonsocial2.png,,"(0.7, 0.5)",cs_plus_ns,,,,,0,0,0,0,,,,,,,,,1,2,18,10,,,,,,,,,,,,,,,,,,,,,1027.4642109000124,125,none,0,,,1032.4709724000422,,,,,,,,26,A,2023-12-14_10h23.12.507,gca_avoidance_task,2022.2.4,144.20712741247308,
positions.xlsx,stimuli.xlsx,stimuli/Social1.png,stimuli/Social2.png,stimuli/Nonsocial1.png,stimuli/Nonsocial2.png,,"(-0.7, 0.5)",cs_plus_s,,,,,0,0,0,0,,,,,,,,,1,3,19,0,,,,,,,,,,,,,,,,,,,,,1042.1164262000239,125,none,0,,,1047.1231755999615,,,,,,,,26,A,2023-12-14_10h23.12.507,gca_avoidance_task,2022.2.4,144.20712741247308,
positions.xlsx,stimuli.xlsx,stimuli/Social1.png,stimuli/Social2.png,stimuli/Nonsocial1.png,stimuli/Nonsocial2.png,,"(-0.7, -0.5)",cs_minus_ns,,,,,0,0,0,0,,,,,,,,,1,4,20,13,,,,,,,,,,,,,,,,,,,,,1056.8866541000316,130,reward,1,0.6249149999348447,0.6249188999645412,1057.5186082000146,,,,,,,,26,A,2023-12-14_10h23.12.507,gca_avoidance_task,2022.2.4,144.20712741247308,
positions.xlsx,stimuli.xlsx,stimuli/Social1.png,stimuli/Social2.png,stimuli/Nonsocial1.png,stimuli/Nonsocial2.png,,"(0.7, 0.5)",cs_plus_s,,,,,0,0,0,0,,,,,,,,,1,5,21,2,,,,,,,,,,,,,,,,,,,,,1067.5667726000538,130,none,0,,,1072.5735659999773,,,,,,,,26,A,2023-12-14_10h23.12.507,gca_avoidance_task,2022.2.4,144.20712741247308,
positions.xlsx,stimuli.xlsx,stimuli/Social1.png,stimuli/Social2.png,stimuli/Nonsocial1.png,stimuli/Nonsocial2.png,,"(0.7, -0.5)",cs_minus_s,,,,,0,0,0,0,,,,,,,,,1,6,22,7,,,,,,,,,,,,,,,,,,,,,1081.9481795999454,135,reward,1,0.5419318000786006,0.541935499990359,1082.4967813000549,,,,,,,,26,A,2023-12-14_10h23.12.507,gca_avoidance_task,2022.2.4,144.20712741247308,
positions.xlsx,stimuli.xlsx,stimuli/Social1.png,stimuli/Social2.png,stimuli/Nonsocial1.png,stimuli/Nonsocial2.png,,"(-0.7, -0.5)",cs_plus_ns,,,,,0,0,0,0,,,,,,,,,1,7,23,9,,,,,,,,,,,,,,,,,,,,,1092.4477709999774,135,none,0,,,1097.4545076000504,,,,,,,,26,A,2023-12-14_10h23.12.507,gca_avoidance_task,2022.2.4,144.20712741247308,
positions.xlsx,stimuli.xlsx,stimuli/Social1.png,stimuli/Social2.png,stimuli/Nonsocial1.png,stimuli/Nonsocial2.png,,"(0.7, 0.5)",cs_minus_ns,,,,,0,0,0,0,,,,,,,,,1,8,24,14,,,,,,,,,,,,,,,,,,,,,1107.3916522000218,140,reward,1,0.5488167000003159,0.5488206000300124,1107.94717509998,,,,,,,,26,A,2023-12-14_10h23.12.507,gca_avoidance_task,2022.2.4,144.20712741247308,
positions.xlsx,stimuli.xlsx,stimuli/Social1.png,stimuli/Social2.png,stimuli/Nonsocial1.png,stimuli/Nonsocial2.png,,"(0.7, 0.5)",cs_minus_s,,,,,0,0,0,0,,,,,,,,,1,9,25,6,,,,,,,,,,,,,,,,,,,,,1116.8912770999596,145,reward,1,0.659657199983485,0.6596610998967662,1117.5578813999891,,,,,,,,26,A,2023-12-14_10h23.12.507,gca_avoidance_task,2022.2.4,144.20712741247308,
positions.xlsx,stimuli.xlsx,stimuli/Social1.png,stimuli/Social2.png,stimuli/Nonsocial1.png,stimuli/Nonsocial2.png,,"(-0.7, -0.5)",cs_plus_s,,,,,0,0,0,0,,,,,,,,,1,10,26,1,,,,,,,,,,,,,,,,,,,,,1126.5020145999733,145,none,0,,,1131.5087407999672,,,,,,,,26,A,2023-12-14_10h23.12.507,gca_avoidance_task,2022.2.4,144.20712741247308,
positions.xlsx,stimuli.xlsx,stimuli/Social1.png,stimuli/Social2.png,stimuli/Nonsocial1.png,stimuli/Nonsocial2.png,,"(-0.7, 0.5)",cs_plus_ns,,,,,0,0,0,0,,,,,,,,,1,11,27,8,,,,,,,,,,,,,,,,,,,,,1141.6125023999484,145,none,0,,,1146.6192775999662,,,,,,,,26,A,2023-12-14_10h23.12.507,gca_avoidance_task,2022.2.4,144.20712741247308,
positions.xlsx,stimuli.xlsx,stimuli/Social1.png,stimuli/Social2.png,stimuli/Nonsocial1.png,stimuli/Nonsocial2.png,,"(-0.7, -0.5)",cs_minus_s,,,,,0,0,0,0,,,,,,,,,1,12,28,5,,,,,,,,,,,,,,,,,,,,,1155.9730663000373,150,reward,1,0.6250446999911219,0.6250480999005958,1156.604977000039,,,,,,,,26,A,2023-12-14_10h23.12.507,gca_avoidance_task,2022.2.4,144.20712741247308,
positions.xlsx,stimuli.xlsx,stimuli/Social1.png,stimuli/Social2.png,stimuli/Nonsocial1.png,stimuli/Nonsocial2.png,,"(0.7, -0.5)",cs_plus_ns,,,,,0,0,0,0,,,,,,,,,1,13,29,11,,,,,,,,,,,,,,,,,,,,,1166.187930300017,150,none,0,,,1171.2016531999689,,,,,,,,26,A,2023-12-14_10h23.12.507,gca_avoidance_task,2022.2.4,144.20712741247308,
positions.xlsx,stimuli.xlsx,stimuli/Social1.png,stimuli/Social2.png,stimuli/Nonsocial1.png,stimuli/Nonsocial2.png,,"(-0.7, 0.5)",cs_minus_s,,,,,0,0,0,0,,,,,,,,,1,14,30,4,,,,,,,,,,,,,,,,,,,,,1181.4581774000544,155,reward,1,0.5832496000220999,0.5832534999353811,1182.0484879000578,,,,,,,,26,A,2023-12-14_10h23.12.507,gca_avoidance_task,2022.2.4,144.20712741247308,
positions.xlsx,stimuli.xlsx,stimuli/Social1.png,stimuli/Social2.png,stimuli/Nonsocial1.png,stimuli/Nonsocial2.png,,"(0.7, -0.5)",cs_minus_ns,,,,,0,0,0,0,,,,,,,,,1,15,31,15,,,,,,,,,,,,,,,,,,,,,1191.839684000006,160,reward,1,0.6390640999889001,0.6390681000193581,1192.4855251000263,,,,,,,,26,A,2023-12-14_10h23.12.507,gca_avoidance_task,2022.2.4,144.20712741247308,
positions.xlsx,stimuli.xlsx,stimuli/Social1.png,stimuli/Social2.png,stimuli/Nonsocial1.png,stimuli/Nonsocial2.png,,"(0.7, -0.5)",cs_minus_ns,,,,,0,0,0,0,,,,,,,,,2,0,32,15,,,,,,,,,,,,,,,,,,,,,1201.9504342,165,reward,1,0.5901824999600649,0.5901861999882385,1202.547624400002,,,,,,,,26,A,2023-12-14_10h23.12.507,gca_avoidance_task,2022.2.4,144.20712741247308,
positions.xlsx,stimuli.xlsx,stimuli/Social1.png,stimuli/Social2.png,stimuli/Nonsocial1.png,stimuli/Nonsocial2.png,,"(-0.7, -0.5)",cs_plus_ns,,,,,0,0,0,0,,,,,,,,,2,1,33,9,,,,,,,,,,,,,,,,,,,,,1212.2000084000174,165,none,0,,,1217.2068207999691,,,,,,,,26,A,2023-12-14_10h23.12.507,gca_avoidance_task,2022.2.4,144.20712741247308,
positions.xlsx,stimuli.xlsx,stimuli/Social1.png,stimuli/Social2.png,stimuli/Nonsocial1.png,stimuli/Nonsocial2.png,,"(0.7, -0.5)",cs_plus_s,,,,,0,0,0,0,,,,,,,,,2,2,34,3,,,,,,,,,,,,,,,,,,,,,1225.9494887000183,165,none,0,,,1230.9562463000184,,,,,,,,26,A,2023-12-14_10h23.12.507,gca_avoidance_task,2022.2.4,144.20712741247308,
positions.xlsx,stimuli.xlsx,stimuli/Social1.png,stimuli/Social2.png,stimuli/Nonsocial1.png,stimuli/Nonsocial2.png,,"(-0.7, -0.5)",cs_minus_ns,,,,,0,0,0,0,,,,,,,,,2,3,35,13,,,,,,,,,,,,,,,,,,,,,1240.5114000999602,170,reward,1,0.507223500055261,0.5072272000834346,1241.0253103000578,,,,,,,,26,A,2023-12-14_10h23.12.507,gca_avoidance_task,2022.2.4,144.20712741247308,
positions.xlsx,stimuli.xlsx,stimuli/Social1.png,stimuli/Social2.png,stimuli/Nonsocial1.png,stimuli/Nonsocial2.png,,"(-0.7, 0.5)",cs_plus_s,,,,,0,0,0,0,,,,,,,,,2,4,36,0,,,,,,,,,,,,,,,,,,,,,1249.6846792000579,170,none,0,,,1254.691437499947,,,,,,,,26,A,2023-12-14_10h23.12.507,gca_avoidance_task,2022.2.4,144.20712741247308,
positions.xlsx,stimuli.xlsx,stimuli/Social1.png,stimuli/Social2.png,stimuli/Nonsocial1.png,stimuli/Nonsocial2.png,,"(0.7, -0.5)",cs_minus_s,,,,,0,0,0,0,,,,,,,,,2,5,37,7,,,,,,,,,,,,,,,,,,,,,1264.1424349000445,175,reward,1,0.5004771999083459,0.5004808999365196,1264.6493822999764,,,,,,,,26,A,2023-12-14_10h23.12.507,gca_avoidance_task,2022.2.4,144.20712741247308,
positions.xlsx,stimuli.xlsx,stimuli/Social1.png,stimuli/Social2.png,stimuli/Nonsocial1.png,stimuli/Nonsocial2.png,,"(-0.7, 0.5)",cs_minus_ns,,,,,0,0,0,0,,,,,,,,,2,6,38,12,,,,,,,,,,,,,,,,,,,,,1274.461511499947,180,reward,2,0.5972015999723226,0.6039726999588311,1275.2045034000184,,,,,,,,26,A,2023-12-14_10h23.12.507,gca_avoidance_task,2022.2.4,144.20712741247308,
positions.xlsx,stimuli.xlsx,stimuli/Social1.png,stimuli/Social2.png,stimuli/Nonsocial1.png,stimuli/Nonsocial2.png,,"(0.7, 0.5)",cs_minus_ns,,,,,0,0,0,0,,,,,,,,,2,7,39,14,,,,,,,,,,,,,,,,,,,,,1284.4819049000507,185,reward,1,0.5978857000591233,0.5978891999693587,1285.0860859999666,,,,,,,,26,A,2023-12-14_10h23.12.507,gca_avoidance_task,2022.2.4,144.20712741247308,
positions.xlsx,stimuli.xlsx,stimuli/Social1.png,stimuli/Social2.png,stimuli/Nonsocial1.png,stimuli/Nonsocial2.png,,"(-0.7, 0.5)",cs_plus_ns,,,,,0,0,0,0,,,,,,,,,2,8,40,8,,,,,,,,,,,,,,,,,,,,,1295.1134395999834,185,none,0,,,1300.1202151000034,,,,,,,,26,A,2023-12-14_10h23.12.507,gca_avoidance_task,2022.2.4,144.20712741247308,
positions.xlsx,stimuli.xlsx,stimuli/Social1.png,stimuli/Social2.png,stimuli/Nonsocial1.png,stimuli/Nonsocial2.png,,"(0.7, 0.5)",cs_minus_s,,,,,0,0,0,0,,,,,,,,,2,9,41,6,,,,,,,,,,,,,,,,,,,,,1309.3768025999889,190,reward,1,0.5003220000071451,0.5003256000345573,1309.8837155000074,,,,,,,,26,A,2023-12-14_10h23.12.507,gca_avoidance_task,2022.2.4,144.20712741247308,
positions.xlsx,stimuli.xlsx,stimuli/Social1.png,stimuli/Social2.png,stimuli/Nonsocial1.png,stimuli/Nonsocial2.png,,"(-0.7, -0.5)",cs_minus_s,,,,,0,0,0,0,,,,,,,,,2,10,42,5,,,,,,,,,,,,,,,,,,,,,1319.2791285000276,195,reward,1,0.569724400062114,0.5697280999738723,1319.855538200005,,,,,,,,26,A,2023-12-14_10h23.12.507,gca_avoidance_task,2022.2.4,144.20712741247308,
positions.xlsx,stimuli.xlsx,stimuli/Social1.png,stimuli/Social2.png,stimuli/Nonsocial1.png,stimuli/Nonsocial2.png,,"(0.7, 0.5)",cs_plus_ns,,,,,0,0,0,0,,,,,,,,,2,11,43,10,,,,,,,,,,,,,,,,,,,,,1329.4037618000293,195,none,0,,,1334.410503800027,,,,,,,,26,A,2023-12-14_10h23.12.507,gca_avoidance_task,2022.2.4,144.20712741247308,
positions.xlsx,stimuli.xlsx,stimuli/Social1.png,stimuli/Social2.png,stimuli/Nonsocial1.png,stimuli/Nonsocial2.png,,"(-0.7, -0.5)",cs_plus_s,,,,,0,0,0,0,,,,,,,,,2,12,44,1,,,,,,,,,,,,,,,,,,,,,1343.4518449000316,195,none,0,,,1348.4585715000285,,,,,,,,26,A,2023-12-14_10h23.12.507,gca_avoidance_task,2022.2.4,144.20712741247308,
positions.xlsx,stimuli.xlsx,stimuli/Social1.png,stimuli/Social2.png,stimuli/Nonsocial1.png,stimuli/Nonsocial2.png,,"(-0.7, 0.5)",cs_minus_s,,,,,0,0,0,0,,,,,,,,,2,13,45,4,,,,,,,,,,,,,,,,,,,,,1358.0068093000446,200,reward,1,0.625017200014554,0.6250207000412047,1358.638766600052,,,,,,,,26,A,2023-12-14_10h23.12.507,gca_avoidance_task,2022.2.4,144.20712741247308,
positions.xlsx,stimuli.xlsx,stimuli/Social1.png,stimuli/Social2.png,stimuli/Nonsocial1.png,stimuli/Nonsocial2.png,,"(0.7, 0.5)",cs_plus_s,,,,,0,0,0,0,,,,,,,,,2,14,46,2,,,,,,,,,,,,,,,,,,,,,1368.2494765999727,200,none,0,,,1373.256221299991,,,,,,,,26,A,2023-12-14_10h23.12.507,gca_avoidance_task,2022.2.4,144.20712741247308,
positions.xlsx,stimuli.xlsx,stimuli/Social1.png,stimuli/Social2.png,stimuli/Nonsocial1.png,stimuli/Nonsocial2.png,,"(0.7, -0.5)",cs_plus_ns,,,,,0,0,0,0,,,,,,,,,2,15,47,11,,,,,,,,,,,,,,,,,,,,,1383.23500840005,200,none,0,,,1388.2417945000343,,,,,,,,26,A,2023-12-14_10h23.12.507,gca_avoidance_task,2022.2.4,144.20712741247308,
positions.xlsx,stimuli.xlsx,stimuli/Social1.png,stimuli/Social2.png,stimuli/Nonsocial1.png,stimuli/Nonsocial2.png,,"(-0.7, -0.5)",cs_minus_s,,,,,0,0,0,0,,,,,,,,,3,0,48,5,,,,,,,,,,,,,,,,,,,,,1397.241398400045,205,reward,1,0.5350034999428317,0.5350072999717668,1397.7830673999852,,,,,,,,26,A,2023-12-14_10h23.12.507,gca_avoidance_task,2022.2.4,144.20712741247308,
positions.xlsx,stimuli.xlsx,stimuli/Social1.png,stimuli/Social2.png,stimuli/Nonsocial1.png,stimuli/Nonsocial2.png,,"(-0.7, -0.5)",cs_plus_ns,,,,,0,0,0,0,,,,,,,,,3,1,49,9,,,,,,,,,,,,,,,,,,,,,1406.8312760000117,205,none,0,,,1411.8380813000258,,,,,,,,26,A,2023-12-14_10h23.12.507,gca_avoidance_task,2022.2.4,144.20712741247308,
positions.xlsx,stimuli.xlsx,stimuli/Social1.png,stimuli/Social2.png,stimuli/Nonsocial1.png,stimuli/Nonsocial2.png,,"(-0.7, -0.5)",cs_minus_ns,,,,,0,0,0,0,,,,,,,,,3,2,50,13,,,,,,,,,,,,,,,,,,,,,1420.976603499963,210,reward,1,0.5695676999166608,0.5695713999448344,1421.5529843999539,,,,,,,,26,A,2023-12-14_10h23.12.507,gca_avoidance_task,2022.2.4,144.20712741247308,
positions.xlsx,stimuli.xlsx,stimuli/Social1.png,stimuli/Social2.png,stimuli/Nonsocial1.png,stimuli/Nonsocial2.png,,"(0.7, -0.5)",cs_minus_s,,,,,0,0,0,0,,,,,,,,,3,3,51,7,,,,,,,,,,,,,,,,,,,,,1431.2609330000123,215,reward,1,0.6322686999337748,0.632272299961187,1431.8997622999595,,,,,,,,26,A,2023-12-14_10h23.12.507,gca_avoidance_task,2022.2.4,144.20712741247308,
positions.xlsx,stimuli.xlsx,stimuli/Social1.png,stimuli/Social2.png,stimuli/Nonsocial1.png,stimuli/Nonsocial2.png,,"(-0.7, 0.5)",cs_minus_ns,,,,,0,0,0,0,,,,,,,,,3,4,52,12,,,,,,,,,,,,,,,,,,,,,1441.0591319999658,220,reward,1,0.6460571999195963,0.6460602999432012,1441.7119349000277,,,,,,,,26,A,2023-12-14_10h23.12.507,gca_avoidance_task,2022.2.4,144.20712741247308,
positions.xlsx,stimuli.xlsx,stimuli/Social1.png,stimuli/Social2.png,stimuli/Nonsocial1.png,stimuli/Nonsocial2.png,,"(-0.7, 0.5)",cs_plus_ns,,,,,0,0,0,0,,,,,,,,,3,5,53,8,,,,,,,,,,,,,,,,,,,,,1450.7462813999737,220,none,0,,,1455.7599416000303,,,,,,,,26,A,2023-12-14_10h23.12.507,gca_avoidance_task,2022.2.4,144.20712741247308,
positions.xlsx,stimuli.xlsx,stimuli/Social1.png,stimuli/Social2.png,stimuli/Nonsocial1.png,stimuli/Nonsocial2.png,,"(0.7, 0.5)",cs_plus_s,,,,,0,0,0,0,,,,,,,,,3,6,54,2,,,,,,,,,,,,,,,,,,,,,1465.3637521000346,220,none,0,,,1470.3704900000012,,,,,,,,26,A,2023-12-14_10h23.12.507,gca_avoidance_task,2022.2.4,144.20712741247308,
positions.xlsx,stimuli.xlsx,stimuli/Social1.png,stimuli/Social2.png,stimuli/Nonsocial1.png,stimuli/Nonsocial2.png,,"(-0.7, 0.5)",cs_minus_s,,,,,0,0,0,0,,,,,,,,,3,7,55,4,,,,,,,,,,,,,,,,,,,,,1479.7382085999707,225,reward,1,0.6251600000541657,0.6251637999666855,1480.3701348999748,,,,,,,,26,A,2023-12-14_10h23.12.507,gca_avoidance_task,2022.2.4,144.20712741247308,
positions.xlsx,stimuli.xlsx,stimuli/Social1.png,stimuli/Social2.png,stimuli/Nonsocial1.png,stimuli/Nonsocial2.png,,"(0.7, -0.5)",cs_plus_s,,,,,0,0,0,0,,,,,,,,,3,8,56,3,,,,,,,,,,,,,,,,,,,,,1490.0919677000493,225,none,0,,,1495.0986997999717,,,,,,,,26,A,2023-12-14_10h23.12.507,gca_avoidance_task,2022.2.4,144.20712741247308,
positions.xlsx,stimuli.xlsx,stimuli/Social1.png,stimuli/Social2.png,stimuli/Nonsocial1.png,stimuli/Nonsocial2.png,,"(-0.7, 0.5)",cs_plus_s,,,,,0,0,0,0,,,,,,,,,3,9,57,0,,,,,,,,,,,,,,,,,,,,,1504.4386079000542,225,none,0,,,1509.4453823999502,,,,,,,,26,A,2023-12-14_10h23.12.507,gca_avoidance_task,2022.2.4,144.20712741247308,
positions.xlsx,stimuli.xlsx,stimuli/Social1.png,stimuli/Social2.png,stimuli/Nonsocial1.png,stimuli/Nonsocial2.png,,"(0.7, -0.5)",cs_minus_ns,,,,,0,0,0,0,,,,,,,,,3,10,58,15,,,,,,,,,,,,,,,,,,,,,1519.361643900047,230,reward,1,0.5903844999847934,0.5903882998973131,1519.9589141999604,,,,,,,,26,A,2023-12-14_10h23.12.507,gca_avoidance_task,2022.2.4,144.20712741247308,
positions.xlsx,stimuli.xlsx,stimuli/Social1.png,stimuli/Social2.png,stimuli/Nonsocial1.png,stimuli/Nonsocial2.png,,"(0.7, 0.5)",cs_minus_s,,,,,0,0,0,0,,,,,,,,,3,11,59,6,,,,,,,,,,,,,,,,,,,,,1530.326540900045,235,reward,1,0.6945158999878913,0.6945195000153035,1531.0278715000022,,,,,,,,26,A,2023-12-14_10h23.12.507,gca_avoidance_task,2022.2.4,144.20712741247308,
positions.xlsx,stimuli.xlsx,stimuli/Social1.png,stimuli/Social2.png,stimuli/Nonsocial1.png,stimuli/Nonsocial2.png,,"(0.7, 0.5)",cs_plus_ns,,,,,0,0,0,0,,,,,,,,,3,12,60,10,,,,,,,,,,,,,,,,,,,,,1540.1802879000315,235,none,0,,,1545.1940174000338,,,,,,,,26,A,2023-12-14_10h23.12.507,gca_avoidance_task,2022.2.4,144.20712741247308,
positions.xlsx,stimuli.xlsx,stimuli/Social1.png,stimuli/Social2.png,stimuli/Nonsocial1.png,stimuli/Nonsocial2.png,,"(0.7, 0.5)",cs_minus_ns,,,,,0,0,0,0,,,,,,,,,3,13,61,14,,,,,,,,,,,,,,,,,,,,,1554.0617108000442,240,reward,1,0.6049347000662237,0.6049384999787435,1554.672785099945,,,,,,,,26,A,2023-12-14_10h23.12.507,gca_avoidance_task,2022.2.4,144.20712741247308,
positions.xlsx,stimuli.xlsx,stimuli/Social1.png,stimuli/Social2.png,stimuli/Nonsocial1.png,stimuli/Nonsocial2.png,,"(-0.7, -0.5)",cs_plus_s,,,,,0,0,0,0,,,,,,,,,3,14,62,1,,,,,,,,,,,,,,,,,,,,,1564.4641346000135,240,none,0,,,1569.4708337000338,,,,,,,,26,A,2023-12-14_10h23.12.507,gca_avoidance_task,2022.2.4,144.20712741247308,
positions.xlsx,stimuli.xlsx,stimuli/Social1.png,stimuli/Social2.png,stimuli/Nonsocial1.png,stimuli/Nonsocial2.png,,"(0.7, -0.5)",cs_plus_ns,,,,,0,0,0,0,,,,,,,,,3,15,63,11,,,,,,,,,,,,,,,,,,,,,1579.005171900033,240,none,0,,,1584.0119054999668,,,,,,,,26,A,2023-12-14_10h23.12.507,gca_avoidance_task,2022.2.4,144.20712741247308,
positions.xlsx,stimuli.xlsx,stimuli/Social1.png,stimuli/Social2.png,stimuli/Nonsocial1.png,stimuli/Nonsocial2.png,,"(-0.7, -0.5)",cs_minus_ns,,,,,0,0,0,0,,,,,,,,,4,0,64,13,,,,,,,,,,,,,,,,,,,,,1593.1505060000345,245,reward,1,0.6599511000094935,0.6599551000399515,1593.8170837999787,,,,,,,,26,A,2023-12-14_10h23.12.507,gca_avoidance_task,2022.2.4,144.20712741247308,
positions.xlsx,stimuli.xlsx,stimuli/Social1.png,stimuli/Social2.png,stimuli/Nonsocial1.png,stimuli/Nonsocial2.png,,"(0.7, -0.5)",cs_plus_s,,,,,0,0,0,0,,,,,,,,,4,1,65,3,,,,,,,,,,,,,,,,,,,,,1603.5250464000273,245,none,0,,,1608.531824799953,,,,,,,,26,A,2023-12-14_10h23.12.507,gca_avoidance_task,2022.2.4,144.20712741247308,
positions.xlsx,stimuli.xlsx,stimuli/Social1.png,stimuli/Social2.png,stimuli/Nonsocial1.png,stimuli/Nonsocial2.png,,"(0.7, 0.5)",cs_minus_ns,,,,,0,0,0,0,,,,,,,,,4,2,66,14,,,,,,,,,,,,,,,,,,,,,1618.0106150000356,250,reward,1,0.5837712000356987,0.583774899947457,1618.600850900053,,,,,,,,26,A,2023-12-14_10h23.12.507,gca_avoidance_task,2022.2.4,144.20712741247308,
positions.xlsx,stimuli.xlsx,stimuli/Social1.png,stimuli/Social2.png,stimuli/Nonsocial1.png,stimuli/Nonsocial2.png,,"(-0.7, -0.5)",cs_plus_s,,,,,0,0,0,0,,,,,,,,,4,3,67,1,,,,,,,,,,,,,,,,,,,,,1627.843527900055,250,none,0,,,1632.850314600044,,,,,,,,26,A,2023-12-14_10h23.12.507,gca_avoidance_task,2022.2.4,144.20712741247308,
positions.xlsx,stimuli.xlsx,stimuli/Social1.png,stimuli/Social2.png,stimuli/Nonsocial1.png,stimuli/Nonsocial2.png,,"(0.7, 0.5)",cs_plus_s,,,,,0,0,0,0,,,,,,,,,4,4,68,2,,,,,,,,,,,,,,,,,,,,,1642.9471186000155,250,none,0,,,1647.9539265000494,,,,,,,,26,A,2023-12-14_10h23.12.507,gca_avoidance_task,2022.2.4,144.20712741247308,
positions.xlsx,stimuli.xlsx,stimuli/Social1.png,stimuli/Social2.png,stimuli/Nonsocial1.png,stimuli/Nonsocial2.png,,"(-0.7, 0.5)",cs_plus_s,,,,,0,0,0,0,,,,,,,,,4,5,69,0,,,,,,,,,,,,,,,,,,,,,1657.6687741000205,250,none,0,,,1662.6755275999894,,,,,,,,26,A,2023-12-14_10h23.12.507,gca_avoidance_task,2022.2.4,144.20712741247308,
positions.xlsx,stimuli.xlsx,stimuli/Social1.png,stimuli/Social2.png,stimuli/Nonsocial1.png,stimuli/Nonsocial2.png,,"(-0.7, 0.5)",cs_plus_ns,,,,,0,0,0,0,,,,,,,,,4,6,70,8,,,,,,,,,,,,,,,,,,,,,1672.3626565999584,250,none,0,,,1677.369412100059,,,,,,,,26,A,2023-12-14_10h23.12.507,gca_avoidance_task,2022.2.4,144.20712741247308,
positions.xlsx,stimuli.xlsx,stimuli/Social1.png,stimuli/Social2.png,stimuli/Nonsocial1.png,stimuli/Nonsocial2.png,,"(0.7, -0.5)",cs_minus_ns,,,,,0,0,0,0,,,,,,,,,4,7,71,15,,,,,,,,,,,,,,,,,,,,,1686.6399044999853,255,reward,1,0.5767113999463618,0.576714999973774,1687.2232085999567,,,,,,,,26,A,2023-12-14_10h23.12.507,gca_avoidance_task,2022.2.4,144.20712741247308,
positions.xlsx,stimuli.xlsx,stimuli/Social1.png,stimuli/Social2.png,stimuli/Nonsocial1.png,stimuli/Nonsocial2.png,,"(-0.7, 0.5)",cs_minus_ns,,,,,0,0,0,0,,,,,,,,,4,8,72,12,,,,,,,,,,,,,,,,,,,,,1697.229755999986,260,reward,1,0.5485937000485137,0.5485972000751644,1697.7852953999536,,,,,,,,26,A,2023-12-14_10h23.12.507,gca_avoidance_task,2022.2.4,144.20712741247308,
positions.xlsx,stimuli.xlsx,stimuli/Social1.png,stimuli/Social2.png,stimuli/Nonsocial1.png,stimuli/Nonsocial2.png,,"(-0.7, -0.5)",cs_minus_s,,,,,0,0,0,0,,,,,,,,,4,9,73,5,,,,,,,,,,,,,,,,,,,,,1707.1530461000511,265,reward,1,0.6595446999417618,0.6595483999699354,1707.8196230999893,,,,,,,,26,A,2023-12-14_10h23.12.507,gca_avoidance_task,2022.2.4,144.20712741247308,
positions.xlsx,stimuli.xlsx,stimuli/Social1.png,stimuli/Social2.png,stimuli/Nonsocial1.png,stimuli/Nonsocial2.png,,"(0.7, 0.5)",cs_plus_ns,,,,,0,0,0,0,,,,,,,,,4,10,74,10,,,,,,,,,,,,,,,,,,,,,1717.3609196000034,265,none,0,,,1722.3676796000218,,,,,,,,26,A,2023-12-14_10h23.12.507,gca_avoidance_task,2022.2.4,144.20712741247308,
positions.xlsx,stimuli.xlsx,stimuli/Social1.png,stimuli/Social2.png,stimuli/Nonsocial1.png,stimuli/Nonsocial2.png,,"(0.7, -0.5)",cs_minus_s,,,,,0,0,0,0,,,,,,,,,4,11,75,7,,,,,,,,,,,,,,,,,,,,,1732.1867398000322,270,reward,1,0.6321044999640435,0.6321081999922171,1732.8256192000117,,,,,,,,26,A,2023-12-14_10h23.12.507,gca_avoidance_task,2022.2.4,144.20712741247308,
positions.xlsx,stimuli.xlsx,stimuli/Social1.png,stimuli/Social2.png,stimuli/Nonsocial1.png,stimuli/Nonsocial2.png,,"(-0.7, -0.5)",cs_plus_ns,,,,,0,0,0,0,,,,,,,,,4,12,76,9,,,,,,,,,,,,,,,,,,,,,1742.3599570000079,270,none,0,,,1747.3667208000552,,,,,,,,26,A,2023-12-14_10h23.12.507,gca_avoidance_task,2022.2.4,144.20712741247308,
positions.xlsx,stimuli.xlsx,stimuli/Social1.png,stimuli/Social2.png,stimuli/Nonsocial1.png,stimuli/Nonsocial2.png,,"(0.7, -0.5)",cs_plus_ns,,,,,0,0,0,0,,,,,,,,,4,13,77,11,,,,,,,,,,,,,,,,,,,,,1756.9288100999547,270,none,0,,,1761.9356332999887,,,,,,,,26,A,2023-12-14_10h23.12.507,gca_avoidance_task,2022.2.4,144.20712741247308,
positions.xlsx,stimuli.xlsx,stimuli/Social1.png,stimuli/Social2.png,stimuli/Nonsocial1.png,stimuli/Nonsocial2.png,,"(-0.7, 0.5)",cs_minus_s,,,,,0,0,0,0,,,,,,,,,4,14,78,4,,,,,,,,,,,,,,,,,,,,,1771.1990885999985,275,reward,1,0.6047969999490306,0.6048006999772042,1771.810187599971,,,,,,,,26,A,2023-12-14_10h23.12.507,gca_avoidance_task,2022.2.4,144.20712741247308,
positions.xlsx,stimuli.xlsx,stimuli/Social1.png,stimuli/Social2.png,stimuli/Nonsocial1.png,stimuli/Nonsocial2.png,,"(0.7, 0.5)",cs_minus_s,,,,,0,0,0,0,,,,,,,,,4,15,79,6,,,,,,,,,,,,,,,,,,,,,1781.8028368999949,280,reward,1,0.5416203999193385,0.5416240999475121,1782.351431600051,,,,,,,,26,A,2023-12-14_10h23.12.507,gca_avoidance_task,2022.2.4,144.20712741247308,
positions.xlsx,stimuli.xlsx,stimuli/Social1.png,stimuli/Social2.png,stimuli/Nonsocial1.png,stimuli/Nonsocial2.png,cs_minus_s,,,,,,,0,0,0,0,,,,,,,,,,,,,0,0,0,2,,,,,,,,,,,,,1797.746694499976,8.0,3.9752610999858007,,,,,,,,,6.0,7.402867699973285,,,,,,26,A,2023-12-14_10h23.12.507,gca_avoidance_task,2022.2.4,144.20712741247308,
positions.xlsx,stimuli.xlsx,stimuli/Social1.png,stimuli/Social2.png,stimuli/Nonsocial1.png,stimuli/Nonsocial2.png,cs_plus_ns,,,,,,,0,0,0,0,,,,,,,,,,,,,0,1,1,1,,,,,,,,,,,,,1802.649291299982,2.0,2.4445861999411136,,,,,,,,,,,,,,,,26,A,2023-12-14_10h23.12.507,gca_avoidance_task,2022.2.4,144.20712741247308,
positions.xlsx,stimuli.xlsx,stimuli/Social1.png,stimuli/Social2.png,stimuli/Nonsocial1.png,stimuli/Nonsocial2.png,cs_plus_s,,,,,,,0,0,0,0,,,,,,,,,,,,,0,2,2,0,,,,,,,,,,,,,1806.0380594000453,3.0,4.917979500023648,,,,,,,,,,,,,,,,26,A,2023-12-14_10h23.12.507,gca_avoidance_task,2022.2.4,144.20712741247308,
positions.xlsx,stimuli.xlsx,stimuli/Social1.png,stimuli/Social2.png,stimuli/Nonsocial1.png,stimuli/Nonsocial2.png,cs_minus_ns,,,,,,,0,0,0,0,,,,,,,,,,,,,0,3,3,3,,,,,,,,,,,,,1812.148936499958,7.0,2.785187599947676,,,,,,,,,,,,,,,,26,A,2023-12-14_10h23.12.507,gca_avoidance_task,2022.2.4,144.20712741247308,
positions.xlsx,stimuli.xlsx,stimuli/Social1.png,stimuli/Social2.png,stimuli/Nonsocial1.png,stimuli/Nonsocial2.png,cs_minus_s,,,,,,,0,0,0,0,,,,,,,,,,,,,,,,,0,0,0,2,,,,,,,,,,,,,,,,,,,,,,1816.0862567999866,1821.1277135000564,4,0.02177929994650185,0.7776593999005854,26,A,2023-12-14_10h23.12.507,gca_avoidance_task,2022.2.4,144.20712741247308,
positions.xlsx,stimuli.xlsx,stimuli/Social1.png,stimuli/Social2.png,stimuli/Nonsocial1.png,stimuli/Nonsocial2.png,cs_minus_ns,,,,,,,0,0,0,0,,,,,,,,,,,,,,,,,0,1,1,3,,,,,,,,,,,,,,,,,,,,,,,1836.1479783999966,3,0.0146517000393942,0.6460475000785664,26,A,2023-12-14_10h23.12.507,gca_avoidance_task,2022.2.4,144.20712741247308,
positions.xlsx,stimuli.xlsx,stimuli/Social1.png,stimuli/Social2.png,stimuli/Nonsocial1.png,stimuli/Nonsocial2.png,cs_plus_s,,,,,,,0,0,0,0,,,,,,,,,,,,,,,,,0,2,2,0,,,,,,,,,,,,,,,,,,,,,,,1851.5085391999455,3,0.013908999972045422,1.0351067999145016,26,A,2023-12-14_10h23.12.507,gca_avoidance_task,2022.2.4,144.20712741247308,
positions.xlsx,stimuli.xlsx,stimuli/Social1.png,stimuli/Social2.png,stimuli/Nonsocial1.png,stimuli/Nonsocial2.png,cs_plus_ns,,,,,,,0,0,0,0,,,,,,,,,,,,,,,,,0,3,3,1,,,,,,,,,,,,,,,,,,,,,,,1866.369027800043,2,0.014221100020222366,1.257143500028178,26,A,2023-12-14_10h23.12.507,gca_avoidance_task,2022.2.4,144.20712741247308,
positions.xlsx,stimuli.xlsx,stimuli/Social1.png,stimuli/Social2.png,stimuli/Nonsocial1.png,stimuli/Nonsocial2.png,cs_plus_s,,,,,,,0,0,0,0,,,,,,,,,,,,,,,,,1,0,4,0,,,,,,,,,,,,,,,,,,,,,,,1881.6045612000162,4,0.014396600075997412,0.6737855999963358,26,A,2023-12-14_10h23.12.507,gca_avoidance_task,2022.2.4,144.20712741247308,
positions.xlsx,stimuli.xlsx,stimuli/Social1.png,stimuli/Social2.png,stimuli/Nonsocial1.png,stimuli/Nonsocial2.png,cs_minus_ns,,,,,,,0,0,0,0,,,,,,,,,,,,,,,,,1,1,5,3,,,,,,,,,,,,,,,,,,,,,,,1896.9441747999517,2,0.014356100000441074,0.6248733999673277,26,A,2023-12-14_10h23.12.507,gca_avoidance_task,2022.2.4,144.20712741247308,
positions.xlsx,stimuli.xlsx,stimuli/Social1.png,stimuli/Social2.png,stimuli/Nonsocial1.png,stimuli/Nonsocial2.png,cs_minus_s,,,,,,,0,0,0,0,,,,,,,,,,,,,,,,,1,2,6,2,,,,,,,,,,,,,,,,,,,,,,,1911.908928000019,3,0.01338159991428256,0.5487356999656186,26,A,2023-12-14_10h23.12.507,gca_avoidance_task,2022.2.4,144.20712741247308,
positions.xlsx,stimuli.xlsx,stimuli/Social1.png,stimuli/Social2.png,stimuli/Nonsocial1.png,stimuli/Nonsocial2.png,cs_plus_ns,,,,,,,0,0,0,0,,,,,,,,,,,,,,,,,1,3,7,1,,,,,,,,,,,,,,,,,,,,,,,1926.58197379997,2,0.015253499965183437,8.513748699915595,26,A,2023-12-14_10h23.12.507,gca_avoidance_task,2022.2.4,144.20712741247308,
positions.xlsx,stimuli.xlsx,stimuli/Social1.png,stimuli/Social2.png,stimuli/Nonsocial1.png,stimuli/Nonsocial2.png,cs_minus_ns,,,,,,,0,0,0,0,,,,,,,,,,,,,,,,,2,0,8,3,,,,,,,,,,,,,,,,,,,,,,,1941.2272214000113,1,0.014172099996358156,10.000001200009137,26,A,2023-12-14_10h23.12.507,gca_avoidance_task,2022.2.4,144.20712741247308,
positions.xlsx,stimuli.xlsx,stimuli/Social1.png,stimuli/Social2.png,stimuli/Nonsocial1.png,stimuli/Nonsocial2.png,cs_plus_ns,,,,,,,0,0,0,0,,,,,,,,,,,,,,,,,2,1,9,1,,,,,,,,,,,,,,,,,,,,,,,1955.9280606999528,2,0.0146677999291569,0.6182459000265226,26,A,2023-12-14_10h23.12.507,gca_avoidance_task,2022.2.4,144.20712741247308,
positions.xlsx,stimuli.xlsx,stimuli/Social1.png,stimuli/Social2.png,stimuli/Nonsocial1.png,stimuli/Nonsocial2.png,cs_plus_s,,,,,,,0,0,0,0,,,,,,,,,,,,,,,,,2,2,10,0,,,,,,,,,,,,,,,,,,,,,,,1971.399677600013,3,0.013711899984627962,0.569628500030376,26,A,2023-12-14_10h23.12.507,gca_avoidance_task,2022.2.4,144.20712741247308,
positions.xlsx,stimuli.xlsx,stimuli/Social1.png,stimuli/Social2.png,stimuli/Nonsocial1.png,stimuli/Nonsocial2.png,cs_minus_s,,,,,,,0,0,0,0,,,,,,,,,,,,,,,,,2,3,11,2,,,,,,,,,,,,,,,,,,,,,,,1986.2115877999458,3,0.014329200028441846,0.5071056000888348,26,A,2023-12-14_10h23.12.507,gca_avoidance_task,2022.2.4,144.20712741247308,
positions.xlsx,stimuli.xlsx,stimuli/Social1.png,stimuli/Social2.png,stimuli/Nonsocial1.png,stimuli/Nonsocial2.png,cs_plus_s,,,,,,,0,0,0,0,,,,,,,,,,,,,,,,,3,0,12,0,,,,,,,,,,,,,,,,,,,,,,,2001.5512749999762,4,0.014067700016312301,0.5974341999972239,26,A,2023-12-14_10h23.12.507,gca_avoidance_task,2022.2.4,144.20712741247308,
positions.xlsx,stimuli.xlsx,stimuli/Social1.png,stimuli/Social2.png,stimuli/Nonsocial1.png,stimuli/Nonsocial2.png,cs_minus_s,,,,,,,0,0,0,0,,,,,,,,,,,,,,,,,3,1,13,2,,,,,,,,,,,,,,,,,,,,,,,2017.0298269999912,3,0.013460899936035275,0.5139688999624923,26,A,2023-12-14_10h23.12.507,gca_avoidance_task,2022.2.4,144.20712741247308,
positions.xlsx,stimuli.xlsx,stimuli/Social1.png,stimuli/Social2.png,stimuli/Nonsocial1.png,stimuli/Nonsocial2.png,cs_minus_ns,,,,,,,0,0,0,0,,,,,,,,,,,,,,,,,3,2,14,3,,,,,,,,,,,,,,,,,,,,,,,2031.8834334999556,3,0.014085500035434961,0.43787899997550994,26,A,2023-12-14_10h23.12.507,gca_avoidance_task,2022.2.4,144.20712741247308,
positions.xlsx,stimuli.xlsx,stimuli/Social1.png,stimuli/Social2.png,stimuli/Nonsocial1.png,stimuli/Nonsocial2.png,cs_plus_ns,,,,,,,0,0,0,0,,,,,,,,,,,,,,,,,3,3,15,1,,,,,,,,,,,,,,,,,,,,,,,2047.007816300029,2,0.01520559994969517,0.6044216000009328,26,A,2023-12-14_10h23.12.507,gca_avoidance_task,2022.2.4,144.20712741247308,
positions.xlsx,stimuli.xlsx,stimuli/Social1.png,stimuli/Social2.png,stimuli/Nonsocial1.png,stimuli/Nonsocial2.png,cs_minus_ns,,,,,,,0,0,0,0,,,,,,,,,,,,,,,,,4,0,16,3,,,,,,,,,,,,,,,,,,,,,,,2062.0350426000077,3,0.014796999981626868,0.5072635000105947,26,A,2023-12-14_10h23.12.507,gca_avoidance_task,2022.2.4,144.20712741247308,
positions.xlsx,stimuli.xlsx,stimuli/Social1.png,stimuli/Social2.png,stimuli/Nonsocial1.png,stimuli/Nonsocial2.png,cs_plus_ns,,,,,,,0,0,0,0,,,,,,,,,,,,,,,,,4,1,17,1,,,,,,,,,,,,,,,,,,,,,,,2077.374744800036,4,0.014569699997082353,0.3754157000221312,26,A,2023-12-14_10h23.12.507,gca_avoidance_task,2022.2.4,144.20712741247308,
positions.xlsx,stimuli.xlsx,stimuli/Social1.png,stimuli/Social2.png,stimuli/Nonsocial1.png,stimuli/Nonsocial2.png,cs_minus_s,,,,,,,0,0,0,0,,,,,,,,,,,,,,,,,4,2,18,2,,,,,,,,,,,,,,,,,,,,,,,2091.9227425999707,7,0.013869100017473102,0.5629163000266999,26,A,2023-12-14_10h23.12.507,gca_avoidance_task,2022.2.4,144.20712741247308,
positions.xlsx,stimuli.xlsx,stimuli/Social1.png,stimuli/Social2.png,stimuli/Nonsocial1.png,stimuli/Nonsocial2.png,cs_plus_s,,,,,,,0,0,0,0,,,,,,,,,,,,,,,,,4,3,19,0,,,,,,,,,,,,,,,,,,,,,,,2106.6443852999946,4,0.01358329993672669,0.4937828000402078,26,A,2023-12-14_10h23.12.507,gca_avoidance_task,2022.2.4,144.20712741247308,
positions.xlsx,stimuli.xlsx,stimuli/Social1.png,stimuli/Social2.png,stimuli/Nonsocial1.png,stimuli/Nonsocial2.png,cs_plus_ns,,,,,,,0,0,0,0,,,,,,,,,,,,,,,,,5,0,20,1,,,,,,,,,,,,,,,,,,,,,,,2121.4493616999825,4,0.013937900075688958,0.4723271999973804,26,A,2023-12-14_10h23.12.507,gca_avoidance_task,2022.2.4,144.20712741247308,
positions.xlsx,stimuli.xlsx,stimuli/Social1.png,stimuli/Social2.png,stimuli/Nonsocial1.png,stimuli/Nonsocial2.png,cs_minus_ns,,,,,,,0,0,0,0,,,,,,,,,,,,,,,,,5,1,21,3,,,,,,,,,,,,,,,,,,,,,,,2136.8237885000417,5,0.014177900040522218,0.6810140999732539,26,A,2023-12-14_10h23.12.507,gca_avoidance_task,2022.2.4,144.20712741247308,
positions.xlsx,stimuli.xlsx,stimuli/Social1.png,stimuli/Social2.png,stimuli/Nonsocial1.png,stimuli/Nonsocial2.png,cs_plus_s,,,,,,,0,0,0,0,,,,,,,,,,,,,,,,,5,2,22,0,,,,,,,,,,,,,,,,,,,,,,,2151.4204769999487,3,0.013553799944929779,2.0906332000158727,26,A,2023-12-14_10h23.12.507,gca_avoidance_task,2022.2.4,144.20712741247308,
positions.xlsx,stimuli.xlsx,stimuli/Social1.png,stimuli/Social2.png,stimuli/Nonsocial1.png,stimuli/Nonsocial2.png,cs_minus_s,,,,,,,0,0,0,0,,,,,,,,,,,,,,,,,5,3,23,2,,,,,,,,,,,,,,,,,,,,,,,2166.8920949000167,3,0.014664200018160045,0.7017181999981403,26,A,2023-12-14_10h23.12.507,gca_avoidance_task,2022.2.4,144.20712741247308,
positions.xlsx,stimuli.xlsx,stimuli/Social1.png,stimuli/Social2.png,stimuli/Nonsocial1.png,stimuli/Nonsocial2.png,cs_plus_s,,,,,,,0,0,0,0,,,,,,,,,,,,,,,,,6,0,24,0,,,,,,,,,,,,,,,,,,,,,,,2181.933128900011,2,0.013449399964883924,0.042247200035490096,26,A,2023-12-14_10h23.12.507,gca_avoidance_task,2022.2.4,144.20712741247308,
positions.xlsx,stimuli.xlsx,stimuli/Social1.png,stimuli/Social2.png,stimuli/Nonsocial1.png,stimuli/Nonsocial2.png,cs_minus_s,,,,,,,0,0,0,0,,,,,,,,,,,,,,,,,6,1,25,2,,,,,,,,,,,,,,,,,,,,,,,2196.5019800999435,2,0.013489500037394464,0.6946512999711558,26,A,2023-12-14_10h23.12.507,gca_avoidance_task,2022.2.4,144.20712741247308,
positions.xlsx,stimuli.xlsx,stimuli/Social1.png,stimuli/Social2.png,stimuli/Nonsocial1.png,stimuli/Nonsocial2.png,cs_plus_ns,,,,,,,0,0,0,0,,,,,,,,,,,,,,,,,6,2,26,1,,,,,,,,,,,,,,,,,,,,,,,2211.0708789000055,4,0.014095399994403124,0.4309216000838205,26,A,2023-12-14_10h23.12.507,gca_avoidance_task,2022.2.4,144.20712741247308,
positions.xlsx,stimuli.xlsx,stimuli/Social1.png,stimuli/Social2.png,stimuli/Nonsocial1.png,stimuli/Nonsocial2.png,cs_minus_ns,,,,,,,0,0,0,0,,,,,,,,,,,,,,,,,6,3,27,3,,,,,,,,,,,,,,,,,,,,,,,2226.5286411000416,2,0.014113300014287233,2.7849135000724345,26,A,2023-12-14_10h23.12.507,gca_avoidance_task,2022.2.4,144.20712741247308,
positions.xlsx,stimuli.xlsx,stimuli/Social1.png,stimuli/Social2.png,stimuli/Nonsocial1.png,stimuli/Nonsocial2.png,cs_plus_ns,,,,,,,0,0,0,0,,,,,,,,,,,,,,,,,7,0,28,1,,,,,,,,,,,,,,,,,,,,,,,2241.16000969999,4,0.014104199944995344,0.5212108999257907,26,A,2023-12-14_10h23.12.507,gca_avoidance_task,2022.2.4,144.20712741247308,
positions.xlsx,stimuli.xlsx,stimuli/Social1.png,stimuli/Social2.png,stimuli/Nonsocial1.png,stimuli/Nonsocial2.png,cs_minus_s,,,,,,,0,0,0,0,,,,,,,,,,,,,,,,,7,1,29,2,,,,,,,,,,,,,,,,,,,,,,,2255.7288743000245,5,0.01342019997537136,3.2224184999940917,26,A,2023-12-14_10h23.12.507,gca_avoidance_task,2022.2.4,144.20712741247308,
positions.xlsx,stimuli.xlsx,stimuli/Social1.png,stimuli/Social2.png,stimuli/Nonsocial1.png,stimuli/Nonsocial2.png,cs_plus_s,,,,,,,0,0,0,0,,,,,,,,,,,,,,,,,7,2,30,0,,,,,,,,,,,,,,,,,,,,,,,2270.554756000056,4,0.013988799997605383,0.13940740004181862,26,A,2023-12-14_10h23.12.507,gca_avoidance_task,2022.2.4,144.20712741247308,
positions.xlsx,stimuli.xlsx,stimuli/Social1.png,stimuli/Social2.png,stimuli/Nonsocial1.png,stimuli/Nonsocial2.png,cs_minus_ns,,,,,,,0,0,0,0,,,,,,,,,,,,,,,,,7,3,31,3,,,,,,,,,,,,,,,,,,,,,,,2285.5194074000465,4,0.014681900036521256,2.180945700034499,26,A,2023-12-14_10h23.12.507,gca_avoidance_task,2022.2.4,144.20712741247308,
positions.xlsx,stimuli.xlsx,stimuli/Social1.png,stimuli/Social2.png,stimuli/Nonsocial1.png,stimuli/Nonsocial2.png,cs_plus_ns,,,,,,,0,0,0,0,,,,,,,,,,,,,,,,,8,0,32,1,,,,,,,,,,,,,,,,,,,,,,,2300.8174140000483,4,0.015134299988858402,0.43091170000843704,26,A,2023-12-14_10h23.12.507,gca_avoidance_task,2022.2.4,144.20712741247308,
positions.xlsx,stimuli.xlsx,stimuli/Social1.png,stimuli/Social2.png,stimuli/Nonsocial1.png,stimuli/Nonsocial2.png,cs_plus_s,,,,,,,0,0,0,0,,,,,,,,,,,,,,,,,8,1,33,0,,,,,,,,,,,,,,,,,,,,,,,2316.170990500017,3,0.013989600003696978,0.5486533000366762,26,A,2023-12-14_10h23.12.507,gca_avoidance_task,2022.2.4,144.20712741247308,
positions.xlsx,stimuli.xlsx,stimuli/Social1.png,stimuli/Social2.png,stimuli/Nonsocial1.png,stimuli/Nonsocial2.png,cs_minus_ns,,,,,,,0,0,0,0,,,,,,,,,,,,,,,,,8,2,34,3,,,,,,,,,,,,,,,,,,,,,,,2331.0384534000186,2,0.014492599992081523,8.847258199937642,26,A,2023-12-14_10h23.12.507,gca_avoidance_task,2022.2.4,144.20712741247308,
positions.xlsx,stimuli.xlsx,stimuli/Social1.png,stimuli/Social2.png,stimuli/Nonsocial1.png,stimuli/Nonsocial2.png,cs_minus_s,,,,,,,0,0,0,0,,,,,,,,,,,,,,,,,8,3,35,2,,,,,,,,,,,,,,,,,,,,,,,2346.3989846999757,3,0.013435299973934889,3.4724213000154123,26,A,2023-12-14_10h23.12.507,gca_avoidance_task,2022.2.4,144.20712741247308,
positions.xlsx,stimuli.xlsx,stimuli/Social1.png,stimuli/Social2.png,stimuli/Nonsocial1.png,stimuli/Nonsocial2.png,cs_plus_ns,,,,,,,0,0,0,0,,,,,,,,,,,,,,,,,9,0,36,1,,,,,,,,,,,,,,,,,,,,,,,2361.6831125000026,3,0.016550100059248507,1.2365151999983937,26,A,2023-12-14_10h23.12.507,gca_avoidance_task,2022.2.4,144.20712741247308,
positions.xlsx,stimuli.xlsx,stimuli/Social1.png,stimuli/Social2.png,stimuli/Nonsocial1.png,stimuli/Nonsocial2.png,cs_plus_s,,,,,,,0,0,0,0,,,,,,,,,,,,,,,,,9,1,37,0,,,,,,,,,,,,,,,,,,,,,,,2376.5783577000257,2,0.013401500065810978,6.0417795000830665,26,A,2023-12-14_10h23.12.507,gca_avoidance_task,2022.2.4,144.20712741247308,
positions.xlsx,stimuli.xlsx,stimuli/Social1.png,stimuli/Social2.png,stimuli/Nonsocial1.png,stimuli/Nonsocial2.png,cs_minus_ns,,,,,,,0,0,0,0,,,,,,,,,,,,,,,,,9,2,38,3,,,,,,,,,,,,,,,,,,,,,,,2391.9249716999475,3,0.014621299924328923,7.465469599934295,26,A,2023-12-14_10h23.12.507,gca_avoidance_task,2022.2.4,144.20712741247308,
positions.xlsx,stimuli.xlsx,stimuli/Social1.png,stimuli/Social2.png,stimuli/Nonsocial1.png,stimuli/Nonsocial2.png,cs_minus_s,,,,,,,0,0,0,0,,,,,,,,,,,,,,,,,9,3,39,2,,,,,,,,,,,,,,,,,,,,,,,2406.9938381999964,5,0.014461299986578524,0.5004584999987856,26,A,2023-12-14_10h23.12.507,gca_avoidance_task,2022.2.4,144.20712741247308,
positions.xlsx,stimuli.xlsx,stimuli/Social1.png,stimuli/Social2.png,stimuli/Nonsocial1.png,stimuli/Nonsocial2.png,cs_plus_ns,,,,,,,0,0,0,0,,,,,,,,,,,,,,,,,,,,,0,0,0,1,,,,,2420.8405762000475,4.0,5.683659200090915,,,,,,,,,,,,,,,,26,A,2023-12-14_10h23.12.507,gca_avoidance_task,2022.2.4,144.20712741247308,
positions.xlsx,stimuli.xlsx,stimuli/Social1.png,stimuli/Social2.png,stimuli/Nonsocial1.png,stimuli/Nonsocial2.png,cs_minus_s,,,,,,,0,0,0,0,,,,,,,,,,,,,,,,,,,,,0,1,1,2,,,,,2427.597242100048,6.0,7.936550399987027,,,,,,,,,,,,,,,,26,A,2023-12-14_10h23.12.507,gca_avoidance_task,2022.2.4,144.20712741247308,
positions.xlsx,stimuli.xlsx,stimuli/Social1.png,stimuli/Social2.png,stimuli/Nonsocial1.png,stimuli/Nonsocial2.png,cs_plus_s,,,,,,,0,0,0,0,,,,,,,,,,,,,,,,,,,,,0,2,2,0,,,,,2436.277479500044,5.0,3.5632559000514448,,,,,,,,,,,,,,,,26,A,2023-12-14_10h23.12.507,gca_avoidance_task,2022.2.4,144.20712741247308,
positions.xlsx,stimuli.xlsx,stimuli/Social1.png,stimuli/Social2.png,stimuli/Nonsocial1.png,stimuli/Nonsocial2.png,cs_minus_ns,,,,,,,0,0,0,0,,,,,,,,,,,,,,,,,,,,,0,3,3,3,,,,,2440.6869863000466,7.0,2.8337222000118345,,,,,,,,,,,,,,,,26,A,2023-12-14_10h23.12.507,gca_avoidance_task,2022.2.4,144.20712741247308,
