posFile,stimFile,cs_plus_s,cs_minus_s,cs_plus_ns,cs_minus_ns,stimtype,position,trialtype,trials_threshold.thisRepN,trials_threshold.thisTrialN,trials_threshold.thisN,trials_threshold.thisIndex,blocks.thisRepN,blocks.thisTrialN,blocks.thisN,blocks.thisIndex,ratingtrials1.thisRepN,ratingtrials1.thisTrialN,ratingtrials1.thisN,ratingtrials1.thisIndex,learning_trials.thisRepN,learning_trials.thisTrialN,learning_trials.thisN,learning_trials.thisIndex,trials.thisRepN,trials.thisTrialN,trials.thisN,trials.thisIndex,ratingtrials2.thisRepN,ratingtrials2.thisTrialN,ratingtrials2.thisN,ratingtrials2.thisIndex,testtrials.thisRepN,testtrials.thisTrialN,testtrials.thisN,testtrials.thisIndex,ratingtrials3.thisRepN,ratingtrials3.thisTrialN,ratingtrials3.thisN,ratingtrials3.thisIndex,textStart.started,spaceStart.started,spaceStart.keys,spaceStart.rt,textPainThreshold.started,spacePainThreshold.started,spacePainThreshold.keys,spacePainThreshold.rt,textRateT.started,text_noPainT.started,text_slightPainT.started,text_highPainT.started,sliderPainT.started,keys_PainT.started,sliderPainT.response,sliderPainT.rt,keys_PainT.keys,keys_PainT.rt,fixcrossT.started,portShock1T.started,portShock1T.stopped,portShock2T.started,portShock2T.stopped,portShock3T.started,portShock3T.stopped,fixcrossT.stopped,text_ETCalibration.started,spaceETCalibration.started,spaceETCalibration.keys,spaceETCalibration.rt,textStartExp.started,spaceStartExp.started,spaceStartExp.keys,spaceStartExp.rt,imageRating.started,sliderStim.started,spaceStim.started,sliderStim.response,sliderStim.rt,spaceStim.keys,spaceStim.rt,textStartTask.started,spaceStartTask.started,spaceStartTask.keys,spaceStartTask.rt,blankScreen.started,blankScreen.stopped,fixcross.started,image.started,roi.started,gazeCursor.started,portImage.started,portImage.stopped,score,outcome,roi.numLooks,roi.timesOn,roi.timesOff,imageFeedback.started,gazeCursor_Feedback.started,soundFeedback.started,portShock1.started,portShock1.stopped,portShock2.started,portShock2.stopped,portShock3.started,portShock3.stopped,soundFeedback.stopped,fixcrossE.started,fixcrossE.stopped,textRepeatTask.started,textboxRepeatInstruction.started,textRepeatSpace.started,spaceRepeatTask.started,spaceRepeatTask.keys,spaceRepeatTask.rt,textRate.started,text_noPain.started,text_slightPain.started,text_highPain.started,sliderPain.started,textSpacePain.started,spacePain.started,sliderPain.response,sliderPain.rt,spacePain.keys,spacePain.rt,textTestInstr.started,spaceTestInstr.started,spaceTestInstr.keys,spaceTestInstr.rt,imageTest.started,roiTest.started,portTestImage.started,portTestImage.stopped,roiTest.numLooks,roiTest.timesOn,roiTest.timesOff,participant,group,date,expName,psychopyVersion,frameRate,
,,,,,,,,,,,,,,,,,,,,,,,,,,,,,,,,,,,,,,,,,11.066143500007456,11.066143500007456,space,1.1084972999960883,,,,,,,,,,,,,,,,,,,,,,,,,,,,,,,,,,,,,,,,,,,,,,,,,,,,,,,,,,,,,,,,,,,,,,,,,,,,,,,,,,,,,,,,,,,,,,,12,A,2023-12-08_11h31.34.421,gca_avoidance_task,2022.2.4,144.02497970831448,
,,,,,,,,,,,,,,,,,,,,,,,,,,,,,,,,,,,,,,,,,,,,,12.18419260000519,12.18419260000519,space,1.3186406000022544,,,,,,,,,,,,,,,,,,,,,,,,,,,,,,,,,,,,,,,,,,,,,,,,,,,,,,,,,,,,,,,,,,,,,,,,,,,,,,,,,,,,,,,,,,,12,A,2023-12-08_11h31.34.421,gca_avoidance_task,2022.2.4,144.02497970831448,
,,,,,,,,,0,0,0,0,,,,,,,,,,,,,,,,,,,,,,,,,,,,,,,,,,,,,14.545178600004874,14.545178600004874,14.545178600004874,14.545178600004874,14.545178600004874,14.545178600004874,None,None,s,5.622545599995647,20.774111000006087,0.10503109999990556,0.11193759999878239,0.15358779999951366,0.1605654000013601,0.20219559999532066,0.2092009999905713,,,,,,,,,,,,,,,,,,,,,,,,,,,,,,,,,,,,,,,,,,,,,,,,,,,,,,,,,,,,,,,,,,,,,,,,,,12,A,2023-12-08_11h31.34.421,gca_avoidance_task,2022.2.4,144.02497970831448,
,,,,,,,,,1,0,1,0,,,,,,,,,,,,,,,,,,,,,,,,,,,,,,,,,,,,,21.537972300007823,21.537972300007823,21.537972300007823,21.537972300007823,21.537972300007823,21.537972300007823,0.0,5.608505600001081,s,10.205647800001316,32.266677000006894,0.1042417000135174,0.11124380001274403,0.15284090000204742,0.1598130000056699,0.20143840000673663,0.20838110000477172,,,,,,,,,,,,,,,,,,,,,,,,,,,,,,,,,,,,,,,,,,,,,,,,,,,,,,,,,,,,,,,,,,,,,,,,,,12,A,2023-12-08_11h31.34.421,gca_avoidance_task,2022.2.4,144.02497970831448,
,,,,,,,,,2,0,2,0,,,,,,,,,,,,,,,,,,,,,,,,,,,,,,,,,,,,,33.05137690000993,33.05137690000993,33.05137690000993,33.05137690000993,33.05137690000993,33.05137690000993,1.0,1.9556572000001324,s,6.435786200003349,40.16223240000545,0.09907349999411963,0.10598670000035781,0.15457100000639912,0.16153129999293014,0.20324410000466742,0.21019990000058897,40.926061899997876,,,,,,,,,,,,,,,,,,,,,,,,,,,,,,,,,,,,,,,,,,,,,,,,,,,,,,,,,,,,,,,,,,,,,,,,,12,A,2023-12-08_11h31.34.421,gca_avoidance_task,2022.2.4,144.02497970831448,
,,,,,,,,,3,0,3,0,,,,,,,,,,,,,,,,,,,,,,,,,,,,,,,,,,,,,40.926061899997876,40.926061899997876,40.926061899997876,40.926061899997876,40.926061899997876,40.926061899997876,1.0,1.7390501000045333,s,5.625005499998224,47.078590899996925,0.09941359999356791,0.10633490000327583,0.15489550000347663,0.16185580000455957,0.20350649999454618,0.2104644999926677,47.849397099998896,,,,,,,,,,,,,,,,,,,,,,,,,,,,,,,,,,,,,,,,,,,,,,,,,,,,,,,,,,,,,,,,,,,,,,,,,12,A,2023-12-08_11h31.34.421,gca_avoidance_task,2022.2.4,144.02497970831448,
,,,,,,,,,4,0,4,0,,,,,,,,,,,,,,,,,,,,,,,,,,,,,,,,,,,,,47.849397099998896,47.849397099998896,47.849397099998896,47.849397099998896,47.849397099998896,47.849397099998896,2.0,1.1962016000034055,s,5.613122900002054,53.994944400008535,0.10060879999946337,0.10754779999842867,0.14921180000237655,0.15616300000692718,0.20476360000611749,0.21171760000288486,54.765767600008985,,,,,,,,,,,,,,,,,,,,,,,,,,,,,,,,,,,,,,,,,,,,,,,,,,,,,,,,,,,,,,,,,,,,,,,,,12,A,2023-12-08_11h31.34.421,gca_avoidance_task,2022.2.4,144.02497970831448,
,,,,,,,,,5,0,5,0,,,,,,,,,,,,,,,,,,,,,,,,,,,,,,,,,,,,,54.765767600008985,54.765767600008985,54.765767600008985,54.765767600008985,54.765767600008985,54.765767600008985,2.0,0.6176857999962522,s,5.409963800004334,60.779418899997836,0.10508789999585133,0.11203579998982605,0.15376200000173412,0.16071339999325573,0.20232209999812767,0.2092800999962492,,,,,,,,,,,,,,,,,,,,,,,,,,,,,,,,,,,,,,,,,,,,,,,,,,,,,,,,,,,,,,,,,,,,,,,,,,12,A,2023-12-08_11h31.34.421,gca_avoidance_task,2022.2.4,144.02497970831448,
,,,,,,,,,6,0,6,0,,,,,,,,,,,,,,,,,,,,,,,,,,,,,,,,,,,,,61.54329410000355,61.54329410000355,61.54329410000355,61.54329410000355,61.54329410000355,61.54329410000355,3.0,1.278344999998808,s,6.919786300000851,69.0985931000032,0.09963499999139458,0.1065968999901088,0.15520749999268446,0.16214339999714866,0.20382199999585282,0.2107965999894077,69.86240440000256,,,,,,,,,,,,,,,,,,,,,,,,,,,,,,,,,,,,,,,,,,,,,,,,,,,,,,,,,,,,,,,,,,,,,,,,,12,A,2023-12-08_11h31.34.421,gca_avoidance_task,2022.2.4,144.02497970831448,
,,,,,,,,,7,0,7,0,,,,,,,,,,,,,,,,,,,,,,,,,,,,,,,,,,,,,69.86240440000256,69.86240440000256,69.86240440000256,69.86240440000256,69.86240440000256,69.86240440000256,3.0,1.4629754000052344,s,6.208821699998225,76.58435509999981,0.10318489999917801,0.11006769999221433,0.15172769999480806,0.15867489999800455,0.20033360000525136,0.20728600000438746,77.34128249999776,,,,,,,,,,,,,,,,,,,,,,,,,,,,,,,,,,,,,,,,,,,,,,,,,,,,,,,,,,,,,,,,,,,,,,,,,12,A,2023-12-08_11h31.34.421,gca_avoidance_task,2022.2.4,144.02497970831448,
,,,,,,,,,8,0,8,0,,,,,,,,,,,,,,,,,,,,,,,,,,,,,,,,,,,,,77.34128249999776,77.34128249999776,77.34128249999776,77.34128249999776,77.34128249999776,77.34128249999776,4.0,1.4423308999976143,s,6.01826450000226,83.87571410000965,0.10091860000102315,0.10786109999753535,0.1495295999920927,0.15649009999469854,0.20510039999498986,0.21200379999936558,84.63957020000089,,,,,,,,,,,,,,,,,,,,,,,,,,,,,,,,,,,,,,,,,,,,,,,,,,,,,,,,,,,,,,,,,,,,,,,,,12,A,2023-12-08_11h31.34.421,gca_avoidance_task,2022.2.4,144.02497970831448,
,,,,,,,,,9,0,9,0,,,,,,,,,,,,,,,,,,,,,,,,,,,,,,,,,,,,,84.63957020000089,84.63957020000089,84.63957020000089,84.63957020000089,84.63957020000089,84.63957020000089,4.0,1.9775232999963919,s,6.151343400008045,91.30596270000387,0.10188200000266079,0.1088651000027312,0.15048969999770634,0.15739969999413006,0.19910119999258313,0.20599400000355672,92.07676180000999,,,,,,,,,,,,,,,,,,,,,,,,,,,,,,,,,,,,,,,,,,,,,,,,,,,,,,,,,,,,,,,,,,,,,,,,,12,A,2023-12-08_11h31.34.421,gca_avoidance_task,2022.2.4,144.02497970831448,
,,,,,,,,,10,0,10,0,,,,,,,,,,,,,,,,,,,,,,,,,,,,,,,,,,,,,92.07676180000999,92.07676180000999,92.07676180000999,92.07676180000999,92.07676180000999,92.07676180000999,5.0,1.268092099999194,s,5.546710800001165,98.13904619999812,0.10453299999062438,0.11141879999195226,0.1531323999952292,0.16005789999326225,0.2017172999912873,0.20864979999896605,,,,,,,,,,,,,,,,,,,,,,,,,,,,,,,,,,,,,,,,,,,,,,,,,,,,,,,,,,,,,,,,,,,,,,,,,,12,A,2023-12-08_11h31.34.421,gca_avoidance_task,2022.2.4,144.02497970831448,
,,,,,,,,,11,0,11,0,,,,,,,,,,,,,,,,,,,,,,,,,,,,,,,,,,,,,98.89595310000004,98.89595310000004,98.89595310000004,98.89595310000004,98.89595310000004,98.89595310000004,5.0,1.2733967999956803,s,6.3356366000080016,105.7429170999967,0.10094270000990946,0.10787840001285076,0.14948810001078527,0.15652690001297742,0.20505280001088977,0.21201770000334363,106.51373859999876,,,,,,,,,,,,,,,,,,,,,,,,,,,,,,,,,,,,,,,,,,,,,,,,,,,,,,,,,,,,,,,,,,,,,,,,,12,A,2023-12-08_11h31.34.421,gca_avoidance_task,2022.2.4,144.02497970831448,
,,,,,,,,,12,0,12,0,,,,,,,,,,,,,,,,,,,,,,,,,,,,,,,,,,,,,106.51373859999876,106.51373859999876,106.51373859999876,106.51373859999876,106.51373859999876,106.51373859999876,6.0,1.2577514000004157,s,5.381743200006895,112.58292060000531,0.10350089998973999,0.11048350000055507,0.15212430000246968,0.15911399999458808,0.20072500000242144,0.20771950000198558,113.34677560000273,,,,,,,,,,,,,,,,,,,,,,,,,,,,,,,,,,,,,,,,,,,,,,,,,,,,,,,,,,,,,,,,,,,,,,,,,12,A,2023-12-08_11h31.34.421,gca_avoidance_task,2022.2.4,144.02497970831448,
,,,,,,,,,13,0,13,0,,,,,,,,,,,,,,,,,,,,,,,,,,,,,,,,,,,,,113.34677560000273,113.34677560000273,113.34677560000273,113.34677560000273,113.34677560000273,113.34677560000273,6.0,1.6645782999985386,s,6.4524111000064295,120.3256362999964,0.09900760000164155,0.10596509999595582,0.1545588000008138,0.1615276999946218,0.2031998000020394,0.21016869999584742,,,,,,,,,,,,,,,,,,,,,,,,,,,,,,,,,,,,,,,,,,,,,,,,,,,,,,,,,,,,,,,,,,,,,,,,,,12,A,2023-12-08_11h31.34.421,gca_avoidance_task,2022.2.4,144.02497970831448,
,,,,,,,,,14,0,14,0,,,,,,,,,,,,,,,,,,,,,,,,,,,,,,,,,,,,,121.09644079999998,121.09644079999998,121.09644079999998,121.09644079999998,121.09644079999998,121.09644079999998,6.0,1.5632147999858717,s,6.438750100001926,128.0406351999991,0.09953750000568107,0.10654280000017025,0.15516399999614805,0.1620922000001883,0.20372560000396334,0.21071909999591298,128.81141150000622,,,,,,,,,,,,,,,,,,,,,,,,,,,,,,,,,,,,,,,,,,,,,,,,,,,,,,,,,,,,,,,,,,,,,,,,,12,A,2023-12-08_11h31.34.421,gca_avoidance_task,2022.2.4,144.02497970831448,
,,,,,,,,,15,0,15,0,,,,,,,,,,,,,,,,,,,,,,,,,,,,,,,,,,,,,128.81141150000622,128.81141150000622,128.81141150000622,128.81141150000622,128.81141150000622,128.81141150000622,6.0,2.243743599989102,s,6.907499799999641,136.24870229999942,0.10339669999666512,0.1103651000012178,0.15199529999517836,0.15894369999296032,0.20057899999665096,0.20751490000111517,137.01247600000352,,,,,,,,,,,,,,,,,,,,,,,,,,,,,,,,,,,,,,,,,,,,,,,,,,,,,,,,,,,,,,,,,,,,,,,,,12,A,2023-12-08_11h31.34.421,gca_avoidance_task,2022.2.4,144.02497970831448,
,,,,,,,,,16,0,16,0,,,,,,,,,,,,,,,,,,,,,,,,,,,,,,,,,,,,,137.01247600000352,137.01247600000352,137.01247600000352,137.01247600000352,137.01247600000352,137.01247600000352,6.0,1.5178607999987435,s,6.219037499991828,143.7483629000053,0.10183660000620876,0.10881160000280943,0.1504642999934731,0.1574213999992935,0.19910939999681432,0.20605649999924935,144.51216330000898,,,,,,,,,,,,,,,,,,,,,,,,,,,,,,,,,,,,,,,,,,,,,,,,,,,,,,,,,,,,,,,,,,,,,,,,,12,A,2023-12-08_11h31.34.421,gca_avoidance_task,2022.2.4,144.02497970831448,
,,,,,,,,,17,0,17,0,,,,,,,,,,,,,,,,,,,,,,,,,,,,,,,,,,,,,144.51216330000898,144.51216330000898,144.51216330000898,144.51216330000898,144.51216330000898,144.51216330000898,6.0,1.3358399999997346,s,6.559547199998633,151.58831089999876,0.1034081999969203,0.1103778999968199,0.1519752000021981,0.15893569999025203,0.2006344999972498,0.20754390000365674,152.35214760000235,,,,,,,,,,,,,,,,,,,,,,,,,,,,,,,,,,,,,,,,,,,,,,,,,,,,,,,,,,,,,,,,,,,,,,,,,12,A,2023-12-08_11h31.34.421,gca_avoidance_task,2022.2.4,144.02497970831448,
,,,,,,,,,18,0,18,0,,,,,,,,,,,,,,,,,,,,,,,,,,,,,,,,,,,,,152.35214760000235,152.35214760000235,152.35214760000235,152.35214760000235,152.35214760000235,152.35214760000235,6.0,0.9427607999969041,s,7.719727400006377,160.5879169999971,0.09972619998734444,0.10668519999308046,0.15526889999455307,0.1621895999996923,0.20386229999712668,0.21080159999837633,161.42121939999925,,,,,,,,,,,,,,,,,,,,,,,,,,,,,,,,,,,,,,,,,,,,,,,,,,,,,,,,,,,,,,,,,,,,,,,,,12,A,2023-12-08_11h31.34.421,gca_avoidance_task,2022.2.4,144.02497970831448,
,,,,,,,,,19,0,19,0,,,,,,,,,,,,,,,,,,,,,,,,,,,,,,,,,,,,,161.42121939999925,161.42121939999925,161.42121939999925,161.42121939999925,161.42121939999925,161.42121939999925,5.0,2.2021320999920135,s,6.713779400000931,168.65011760000198,0.10415239998837933,0.11112379998667166,0.1527866999967955,0.15974329999880865,0.2013401000003796,0.2082998999976553,169.4139479000005,,,,,,,,,,,,,,,,,,,,,,,,,,,,,,,,,,,,,,,,,,,,,,,,,,,,,,,,,,,,,,,,,,,,,,,,,12,A,2023-12-08_11h31.34.421,gca_avoidance_task,2022.2.4,144.02497970831448,
,,,,,,,,,20,0,20,0,,,,,,,,,,,,,,,,,,,,,,,,,,,,,,,,,,,,,169.4139479000005,169.4139479000005,169.4139479000005,169.4139479000005,169.4139479000005,169.4139479000005,5.0,2.075183199995081,s,7.3373186999961035,177.27476290000777,0.10460839999723248,0.1115462000016123,0.15318069999921136,0.1601100999978371,0.2018437999940943,0.20875920000253245,,,,,,,,,,,,,,,,,,,,,,,,,,,,,,,,,,,,,,,,,,,,,,,,,,,,,,,,,,,,,,,,,,,,,,,,,,12,A,2023-12-08_11h31.34.421,gca_avoidance_task,2022.2.4,144.02497970831448,
,,,,,,,,,21,0,21,0,,,,,,,,,,,,,,,,,,,,,,,,,,,,,,,,,,,,,178.0386307000008,178.0386307000008,178.0386307000008,178.0386307000008,178.0386307000008,178.0386307000008,5.0,1.0956749000033597,s,4.416698200002429,183.16341590000957,0.10386229999130592,0.11081600000034086,0.15249569999286905,0.15944309999758843,0.2011006999964593,0.20809669999289326,183.92723660000775,,,,,,,,,,,,,,,,,,,,,,,,,,,,,,,,,,,,,,,,,,,,,,,,,,,,,,,,,,,,,,,,,,,,,,,,,12,A,2023-12-08_11h31.34.421,gca_avoidance_task,2022.2.4,144.02497970831448,
,,,,,,,,,22,0,22,0,,,,,,,,,,,,,,,,,,,,,,,,,,,,,,,,,,,,,183.92723660000775,183.92723660000775,183.92723660000775,183.92723660000775,183.92723660000775,183.92723660000775,5.0,1.6354480000009062,s,6.511730300000636,191.00337829999626,0.10146109999914188,0.10846370000217576,0.1500940999976592,0.1570577999955276,0.20563070000207517,0.2126021000003675,191.77418639999814,,,,,,,,,,,,,,,,,,,,,,,,,,,,,,,,,,,,,,,,,,,,,,,,,,,,,,,,,,,,,,,,,,,,,,,,,12,A,2023-12-08_11h31.34.421,gca_avoidance_task,2022.2.4,144.02497970831448,
,,,,,,,,,23,0,23,0,,,,,,,,,,,,,,,,,,,,,,,,,,,,,,,,,,,,,191.77418639999814,191.77418639999814,191.77418639999814,191.77418639999814,191.77418639999814,191.77418639999814,6.0,1.076415100003942,s,5.800402200009557,198.09339490000275,0.10004309999931138,0.10698779999802355,0.15555939999467228,0.162541899990174,0.20417089998954907,0.21114139999554027,198.85722659999738,,,,,,,,,,,,,,,,,,,,,,,,,,,,,,,,,,,,,,,,,,,,,,,,,,,,,,,,,,,,,,,,,,,,,,,,,12,A,2023-12-08_11h31.34.421,gca_avoidance_task,2022.2.4,144.02497970831448,
,,,,,,,,,24,0,24,0,,,,,,,,,,,,,,,,,,,,,,,,,,,,,,,,,,,,,198.85722659999738,198.85722659999738,198.85722659999738,198.85722659999738,198.85722659999738,198.85722659999738,6.0,1.0934055000107037,s,5.525816499997745,205.0652865000011,0.10583260000566952,0.11278520000632852,0.15449280000757426,0.16147170000476763,0.20306569999956992,0.2100732999970205,,,,,,,,,,,,,,,,,,,,,,,,,,,,,,,,,,,,,,,,,,,,,,,,,,,,,,,,,,,,,,,,,,,,,,,,,,12,A,2023-12-08_11h31.34.421,gca_avoidance_task,2022.2.4,144.02497970831448,
,,,,,,,,,25,0,25,0,,,,,,,,,,,,,,,,,,,,,,,,,,,,,,,,,,,,,205.82915890000004,205.82915890000004,205.82915890000004,205.82915890000004,205.82915890000004,205.82915890000004,6.0,1.2418939999915892,s,5.866548899997724,212.3497583999997,0.103690000003553,0.11070069999550469,0.15232780000951607,0.1592709999968065,0.20090150000760332,0.20786340000631753,213.11359079999966,,,,,,,,,,,,,,,,,,,,,,,,,,,,,,,,,,,,,,,,,,,,,,,,,,,,,,,,,,,,,,,,,,,,,,,,,12,A,2023-12-08_11h31.34.421,gca_avoidance_task,2022.2.4,144.02497970831448,
,,,,,,,,,26,0,26,0,,,,,,,,,,,,,,,,,,,,,,,,,,,,,,,,,,,,,213.11359079999966,213.11359079999966,213.11359079999966,213.11359079999966,213.11359079999966,213.11359079999966,6.0,2.718340100007481,s,7.613051699998323,221.25217619999603,0.1017944999912288,0.10874559999501798,0.15044789999956265,0.15735080000013113,0.1990088000020478,0.2060077999922214,222.01601150000351,,,,,,,,,,,,,,,,,,,,,,,,,,,,,,,,,,,,,,,,,,,,,,,,,,,,,,,,,,,,,,,,,,,,,,,,,12,A,2023-12-08_11h31.34.421,gca_avoidance_task,2022.2.4,144.02497970831448,
,,,,,,,,,27,0,27,0,,,,,,,,,,,,,,,,,,,,,,,,,,,,,,,,,,,,,222.01601150000351,222.01601150000351,222.01601150000351,222.01601150000351,222.01601150000351,222.01601150000351,7.0,0.8999553999892669,s,6.4791584000049625,229.015750999999,0.09940910000295844,0.10634930001106113,0.15489040000829846,0.16187680000439286,0.20350020000478253,0.21052530000451952,229.78655309999886,,,,,,,,,,,,,,,,,,,,,,,,,,,,,,,,,,,,,,,,,,,,,,,,,,,,,,,,,,,,,,,,,,,,,,,,,12,A,2023-12-08_11h31.34.421,gca_avoidance_task,2022.2.4,144.02497970831448,
,,,,,,,,,28,0,28,0,,,,,,,,,,,,,,,,,,,,,,,,,,,,,,,,,,,,,229.78655309999886,229.78655309999886,229.78655309999886,229.78655309999886,229.78655309999886,229.78655309999886,7.0,0.7417691000009654,s,5.4201638999948045,235.73768669999845,0.1051043000043137,0.11204800000996329,0.1537366000120528,0.16068730001279619,0.20236530000693165,0.20929230000183452,,,,,,,,,,,,,,,,,,,,,,,,,,,,,,,,,,,,,,,,,,,,,,,,,,,,,,,,,,,,,,,,,,,,,,,,,,12,A,2023-12-08_11h31.34.421,gca_avoidance_task,2022.2.4,144.02497970831448,
,,,,,,,,,29,0,29,0,,,,,,,,,,,,,,,,,,,,,,,,,,,,,,,,,,,,,236.52935199999774,236.52935199999774,236.52935199999774,236.52935199999774,236.52935199999774,236.52935199999774,7.0,0.7459567999903811,s,5.069589899998391,242.29995770000096,0.10117589999572374,0.10810529999434948,0.14980209998611826,0.15677109999523964,0.20534639999095816,0.2122631999955047,243.14712280000094,,,,,,,,,,,,,,,,,,,,,,,,,,,,,,,,,,,,,,,,,,,,,,,,,,,,,,,,,,,,,,,,,,,,,,,,,12,A,2023-12-08_11h31.34.421,gca_avoidance_task,2022.2.4,144.02497970831448,
,,,,,,,,,30,0,30,0,,,,,,,,,,,,,,,,,,,,,,,,,,,,,,,,,,,,,243.14712280000094,243.14712280000094,243.14712280000094,243.14712280000094,243.14712280000094,243.14712280000094,7.0,0.9308412999962457,s,5.9156687000067905,249.57049410000036,0.1005689000012353,0.10751349999918602,0.14913520000118297,0.1560851999965962,0.20470250000653323,0.21164340000541415,250.32736910000676,,,,,,,,,,,,,,,,,,,,,,,,,,,,,,,,,,,,,,,,,,,,,,,,,,,,,,,,,,,,,,,,,,,,,,,,,12,A,2023-12-08_11h31.34.421,gca_avoidance_task,2022.2.4,144.02497970831448,
,,,,,,,,,31,0,31,0,,,,,,,,,,,,,,,,,,,,,,,,,,,,,,,,,,,,,250.32736910000676,250.32736910000676,250.32736910000676,250.32736910000676,250.32736910000676,250.32736910000676,7.0,0.7459344000089914,s,4.799277700003586,255.66049609999754,0.10515879999729805,0.11210890000802465,0.15382819999649655,0.1607650000078138,0.20241120000719093,0.20932959999481682,,,,,,,,,,,,,,,,,,,,,,,,,,,,,,,,,,,,,,,,,,,,,,,,,,,,,,,,,,,,,,,,,,,,,,,,,,12,A,2023-12-08_11h31.34.421,gca_avoidance_task,2022.2.4,144.02497970831448,
,,,,,,,,,32,0,32,0,,,,,,,,,,,,,,,,,,,,,,,,,,,,,,,,,,,,,256.42436990000715,256.42436990000715,256.42436990000715,256.42436990000715,256.42436990000715,256.42436990000715,7.0,1.2354806000075769,s,5.702396499997121,262.6532913999981,0.10085170000093058,0.10775029999786057,0.14941179999732412,0.15638899999612477,0.20499800000106916,0.2119222999899648,263.41715910000494,,,,,,,,,,,,,,,,,,,,,,,,,,,,,,,,,,,,,,,,,,,,,,,,,,,,,,,,,,,,,,,,,,,,,,,,,12,A,2023-12-08_11h31.34.421,gca_avoidance_task,2022.2.4,144.02497970831448,
,,,,,,,,,33,0,33,0,,,,,,,,,,,,,,,,,,,,,,,,,,,,,,,,,,,,,263.41715910000494,263.41715910000494,263.41715910000494,263.41715910000494,263.41715910000494,263.41715910000494,6.0,1.8866598999884445,g,13.326137299998663,277.28469430000405,,,,,,,,,,,,,,,,,,,,,,,,,,,,,,,,,,,,,,,,,,,,,,,,,,,,,,,,,,,,,,,,,,,,,,,,,,,,,,,,12,A,2023-12-08_11h31.34.421,gca_avoidance_task,2022.2.4,144.02497970831448,
,,,,,,,,,,,,,,,,,,,,,,,,,,,,,,,,,,,,,,,,,,,,,,,,,,,,,,,,,,,,,,,,,,,277.28469430000405,277.28469430000405,space,1.8669029000011506,,,,,,,,,,,,,,,,,,,,,,,,,,,,,,,,,,,,,,,,,,,,,,,,,,,,,,,,,,,,,,,,,,,,,12,A,2023-12-08_11h31.34.421,gca_avoidance_task,2022.2.4,144.02497970831448,
positions.xlsx,stimuli.xlsx,stimuli/Social1.png,stimuli/Social2.png,stimuli/Nonsocial1.png,stimuli/Nonsocial2.png,cs_minus_s,,,,,,,0,0,0,0,0,0,0,2,,,,,,,,,,,,,,,,,,,,,,,,,,,,,,,,,,,,,,,,,,,,,,,,,,,517.5350939000054,517.5350939000054,space,11.448576900002081,529.0315153999982,529.0315153999982,537.2326553000021,6.0,11.362458399991738,space,4.91841050000221,,,,,,,,,,,,,,,,,,,,,,,,,,,,,,,,,,,,,,,,,,,,,,,,,,,,,,,,,,12,A,2023-12-08_11h31.34.421,gca_avoidance_task,2022.2.4,144.02497970831448,
positions.xlsx,stimuli.xlsx,stimuli/Social1.png,stimuli/Social2.png,stimuli/Nonsocial1.png,stimuli/Nonsocial2.png,cs_plus_s,,,,,,,0,0,0,0,0,1,1,0,,,,,,,,,,,,,,,,,,,,,,,,,,,,,,,,,,,,,,,,,,,,,,,,,,,,,,,542.1837598999991,542.1837598999991,546.8988279000041,5.0,4.701785299999756,space,0.6845322000008309,,,,,,,,,,,,,,,,,,,,,,,,,,,,,,,,,,,,,,,,,,,,,,,,,,,,,,,,,,12,A,2023-12-08_11h31.34.421,gca_avoidance_task,2022.2.4,144.02497970831448,
positions.xlsx,stimuli.xlsx,stimuli/Social1.png,stimuli/Social2.png,stimuli/Nonsocial1.png,stimuli/Nonsocial2.png,cs_minus_ns,,,,,,,0,0,0,0,0,2,2,3,,,,,,,,,,,,,,,,,,,,,,,,,,,,,,,,,,,,,,,,,,,,,,,,,,,,,,,547.6210252000019,547.6210252000019,552.4611050000094,4.0,4.834027400007471,space,1.026309399996535,,,,,,,,,,,,,,,,,,,,,,,,,,,,,,,,,,,,,,,,,,,,,,,,,,,,,,,,,,12,A,2023-12-08_11h31.34.421,gca_avoidance_task,2022.2.4,144.02497970831448,
positions.xlsx,stimuli.xlsx,stimuli/Social1.png,stimuli/Social2.png,stimuli/Nonsocial1.png,stimuli/Nonsocial2.png,cs_plus_ns,,,,,,,0,0,0,0,0,3,3,1,,,,,,,,,,,,,,,,,,,,,,,,,,,,,,,,,,,,,,,,,,,,,,,,,,,,,,,553.5166663999989,553.5166663999989,557.002588000003,4.0,3.4726058000087505,space,0.9890365000028396,,,,,,,,,,,,,,,,,,,,,,,,,,,,,,,,,,,,,,,,,,,,,,,,,,,,,,,,,,12,A,2023-12-08_11h31.34.421,gca_avoidance_task,2022.2.4,144.02497970831448,
positions.xlsx,stimuli.xlsx,stimuli/Social1.png,stimuli/Social2.png,stimuli/Nonsocial1.png,stimuli/Nonsocial2.png,,"(-0.7, 0.5)",cs_minus_ns,,,,,0,0,0,0,,,,,0,0,0,12,,,,,,,,,,,,,,,,,,,,,,,,,,,,,,,,,,,,,,,,,,,,,,,,,,,,,,,,,,558.0025277999957,558.0025277999957,space,14.884560299993609,575.8143661000067,577.1684532000072,575.3144036000012,577.1684532000072,577.1684532000072,577.1684532000072,0.015329700006986968,0.020419100008439273,5,reward,1,[0.21582660000422038],[0.21583030000329018],577.3907755999971,577.3907755999971,0.01593739999225363,0.01593739999225363,0.025119299985817634,0.05277949999435805,0.05970309999247547,0.10137659999600146,0.1083094999921741,1.0110417999967467,580.8767313999997,584.6404031999991,,,,,,,,,,,,,,,,,,,,,,,,,,,,,12,A,2023-12-08_11h31.34.421,gca_avoidance_task,2022.2.4,144.02497970831448,
positions.xlsx,stimuli.xlsx,stimuli/Social1.png,stimuli/Social2.png,stimuli/Nonsocial1.png,stimuli/Nonsocial2.png,,"(0.7, 0.5)",cs_plus_ns,,,,,0,0,0,0,,,,,0,1,1,10,,,,,,,,,,,,,,,,,,,,,,,,,,,,,,,,,,,,,,,,,,,,,,,,,,,,,,,,,,,,,,585.1473002999992,586.7028186000098,584.6404031999991,586.7028186000098,586.7028186000098,586.7028186000098,0.006829699996160343,0.013015999997151084,5,shock,1,[0.3125641000078758],[0.3125674000038998],587.0222566000011,587.0222566000011,0.007754499994916841,0.007754499994916841,0.018507899992982857,0.05313149999710731,0.06014249999134336,0.10174080000433605,0.1086899999936577,1.004504900003667,590.5152156999975,594.4803143000026,,,,,,,,,,,,,,,,,,,,,,,,,,,,,12,A,2023-12-08_11h31.34.421,gca_avoidance_task,2022.2.4,144.02497970831448,
positions.xlsx,stimuli.xlsx,stimuli/Social1.png,stimuli/Social2.png,stimuli/Nonsocial1.png,stimuli/Nonsocial2.png,,"(0.7, 0.5)",cs_minus_ns,,,,,0,0,0,0,,,,,0,2,2,14,,,,,,,,,,,,,,,,,,,,,,,,,,,,,,,,,,,,,,,,,,,,,,,,,,,,,,,,,,,,,,594.9871774000057,596.3621439999988,594.4803143000026,596.3621439999988,596.3621439999988,596.3621439999988,0.007326699997065589,0.013085999991744757,10,reward,0,,,596.6537877000083,596.6537877000083,0.007924200006527826,0.007924200006527826,0.018324600008782,0.053048200003104284,0.06001739999919664,0.10171519999857992,0.1085839000006672,1.0043563000072027,600.1467785999994,604.2229667000065,,,,,,,,,,,,,,,,,,,,,,,,,,,,,12,A,2023-12-08_11h31.34.421,gca_avoidance_task,2022.2.4,144.02497970831448,
positions.xlsx,stimuli.xlsx,stimuli/Social1.png,stimuli/Social2.png,stimuli/Nonsocial1.png,stimuli/Nonsocial2.png,,"(-0.7, 0.5)",cs_minus_s,,,,,0,0,0,0,,,,,0,3,3,4,,,,,,,,,,,,,,,,,,,,,,,,,,,,,,,,,,,,,,,,,,,,,,,,,,,,,,,,,,,,,,604.7298422000022,606.4658935000043,604.2229667000065,606.4658935000043,606.4658935000043,606.4658935000043,0.006610500000533648,0.013063799997325987,15,reward,1,[0.3055731000058586],[0.3055768000049284],606.7783992000041,606.7783992000041,0.007488999995985068,0.007488999995985068,0.018428199997288175,0.05309079999278765,0.06002689999877475,0.10171180000179447,0.10866329999407753,1.004433499998413,610.2714032000076,613.8337236000079,,,,,,,,,,,,,,,,,,,,,,,,,,,,,12,A,2023-12-08_11h31.34.421,gca_avoidance_task,2022.2.4,144.02497970831448,
positions.xlsx,stimuli.xlsx,stimuli/Social1.png,stimuli/Social2.png,stimuli/Nonsocial1.png,stimuli/Nonsocial2.png,,"(0.7, 0.5)",cs_minus_s,,,,,0,0,0,0,,,,,0,4,4,6,,,,,,,,,,,,,,,,,,,,,,,,,,,,,,,,,,,,,,,,,,,,,,,,,,,,,,,,,,,,,,614.3405796000006,615.4932989000081,613.8337236000079,615.4932989000081,615.4932989000081,615.4932989000081,0.006502799995359965,0.012929799995617941,20,reward,1,[0.25712900000507943],[0.2571329000056721],615.7572252999962,615.7572252999962,0.007150799996452406,0.007150799996452406,0.018513499991968274,0.05320939999364782,0.06015599999227561,0.1017786000011256,0.10871629999019206,1.0045192999969004,619.250222600007,623.2708310000016,,,,,,,,,,,,,,,,,,,,,,,,,,,,,12,A,2023-12-08_11h31.34.421,gca_avoidance_task,2022.2.4,144.02497970831448,
positions.xlsx,stimuli.xlsx,stimuli/Social1.png,stimuli/Social2.png,stimuli/Nonsocial1.png,stimuli/Nonsocial2.png,,"(0.7, -0.5)",cs_plus_s,,,,,0,0,0,0,,,,,0,5,5,3,,,,,,,,,,,,,,,,,,,,,,,,,,,,,,,,,,,,,,,,,,,,,,,,,,,,,,,,,,,,,,623.777720500002,625.0276409000071,623.2708310000016,625.0276409000071,625.0276409000071,625.0276409000071,0.006144500002847053,0.013000200007809326,20,shock,2,"[0.7221647999976994, 0.7429956999985734]","[0.7291970999940531, 0.7429991999961203]",625.7776580000063,625.7776580000063,0.006703400009428151,0.006703400009428151,0.0185403000068618,0.05324200000904966,0.06015289999777451,0.10182890000578482,0.10879290000593755,1.0045411000028253,629.2706321000005,633.6939869000053,,,,,,,,,,,,,,,,,,,,,,,,,,,,,12,A,2023-12-08_11h31.34.421,gca_avoidance_task,2022.2.4,144.02497970831448,
positions.xlsx,stimuli.xlsx,stimuli/Social1.png,stimuli/Social2.png,stimuli/Nonsocial1.png,stimuli/Nonsocial2.png,,"(-0.7, 0.5)",cs_plus_ns,,,,,0,0,0,0,,,,,0,6,6,8,,,,,,,,,,,,,,,,,,,,,,,,,,,,,,,,,,,,,,,,,,,,,,,,,,,,,,,,,,,,,,634.200948800004,635.4994772000064,633.6939869000053,635.4994772000064,635.4994772000064,635.4994772000064,0.006186699989484623,0.013420399991446175,20,shock,1,[0.31989559999783523],[0.32685379999747965],635.8327486000053,635.8327486000053,0.008132100003422238,0.008132100003422238,0.01873419999901671,0.05340990000695456,0.06037990000913851,0.10201349999988452,0.10901710001053289,1.004753500004881,639.325702400005,643.6658723,,,,,,,,,,,,,,,,,,,,,,,,,,,,,12,A,2023-12-08_11h31.34.421,gca_avoidance_task,2022.2.4,144.02497970831448,
positions.xlsx,stimuli.xlsx,stimuli/Social1.png,stimuli/Social2.png,stimuli/Nonsocial1.png,stimuli/Nonsocial2.png,,"(-0.7, -0.5)",cs_minus_ns,,,,,0,0,0,0,,,,,0,7,7,13,,,,,,,,,,,,,,,,,,,,,,,,,,,,,,,,,,,,,,,,,,,,,,,,,,,,,,,,,,,,,,644.1727069000044,645.8393369999976,643.6658723,645.8393369999976,645.8393369999976,645.8393369999976,0.006837399996584281,0.013408700004220009,25,reward,1,[0.34067260001029354],[0.34067630000936333],646.1865281000064,646.1865281000064,0.007290099994861521,0.007290099994861521,0.018294699999387376,0.05305919999955222,0.05994339998869691,0.10157539999636356,0.10853579999820795,1.0043121999915456,649.679501999999,653.8390511000034,,,,,,,,,,,,,,,,,,,,,,,,,,,,,12,A,2023-12-08_11h31.34.421,gca_avoidance_task,2022.2.4,144.02497970831448,
positions.xlsx,stimuli.xlsx,stimuli/Social1.png,stimuli/Social2.png,stimuli/Nonsocial1.png,stimuli/Nonsocial2.png,,"(-0.7, 0.5)",cs_plus_s,,,,,0,0,0,0,,,,,0,8,8,0,,,,,,,,,,,,,,,,,,,,,,,,,,,,,,,,,,,,,,,,,,,,,,,,,,,,,,,,,,,,,,654.3459158000041,655.9153214999969,653.8390511000034,655.9153214999969,655.9153214999969,655.9153214999969,0.006011799996485934,0.01329819999227766,25,shock,1,[0.27839659999881405],[0.27840049999940675],656.2000313000026,656.2000313000026,0.007601700010127388,0.007601700010127388,0.018417600003886037,0.05309300000953954,0.060112999999546446,0.1017137000017101,0.10862670000642538,1.004459500007215,659.6929358000052,664.1164047000057,,,,,,,,,,,,,,,,,,,,,,,,,,,,,12,A,2023-12-08_11h31.34.421,gca_avoidance_task,2022.2.4,144.02497970831448,
positions.xlsx,stimuli.xlsx,stimuli/Social1.png,stimuli/Social2.png,stimuli/Nonsocial1.png,stimuli/Nonsocial2.png,,"(0.7, -0.5)",cs_minus_s,,,,,0,0,0,0,,,,,0,9,9,7,,,,,,,,,,,,,,,,,,,,,,,,,,,,,,,,,,,,,,,,,,,,,,,,,,,,,,,,,,,,,,664.6232957000029,665.8176867000002,664.1164047000057,665.8176867000002,665.8176867000002,665.8176867000002,0.006336199992801994,0.013146700002835132,30,reward,1,[0.1737693000031868],[0.17377310000301804],665.9983078000078,665.9983078000078,0.006836699991254136,0.006836699991254136,0.018632199993589893,0.053230099991196766,0.060227199996006675,0.10181819999706931,0.10877750000508968,1.0045874999923399,669.4912440000044,672.9980367000098,,,,,,,,,,,,,,,,,,,,,,,,,,,,,12,A,2023-12-08_11h31.34.421,gca_avoidance_task,2022.2.4,144.02497970831448,
positions.xlsx,stimuli.xlsx,stimuli/Social1.png,stimuli/Social2.png,stimuli/Nonsocial1.png,stimuli/Nonsocial2.png,,"(-0.7, -0.5)",cs_plus_ns,,,,,0,0,0,0,,,,,0,10,10,9,,,,,,,,,,,,,,,,,,,,,,,,,,,,,,,,,,,,,,,,,,,,,,,,,,,,,,,,,,,,,,673.504903100009,675.1853719000064,672.9980367000098,675.1853719000064,675.1853719000064,675.1853719000064,0.006867999996757135,0.013322500002686866,30,shock,1,[0.24328670000249986],[0.24329060000309255],675.4353793000046,675.4353793000046,0.007787000009557232,0.007787000009557232,0.018879800001741387,0.05350420001195744,0.060468499999842606,0.10213040000235196,0.10911340000166092,1.004904200002784,678.9283211000002,682.6504087000067,,,,,,,,,,,,,,,,,,,,,,,,,,,,,12,A,2023-12-08_11h31.34.421,gca_avoidance_task,2022.2.4,144.02497970831448,
positions.xlsx,stimuli.xlsx,stimuli/Social1.png,stimuli/Social2.png,stimuli/Nonsocial1.png,stimuli/Nonsocial2.png,,"(-0.7, -0.5)",cs_plus_s,,,,,0,0,0,0,,,,,0,11,11,1,,,,,,,,,,,,,,,,,,,,,,,,,,,,,,,,,,,,,,,,,,,,,,,,,,,,,,,,,,,,,,683.1572818999994,685.0391650000092,682.6504087000067,685.0391650000092,685.0391650000092,685.0391650000092,0.005838900004164316,0.012993199998163618,30,shock,1,[0.27773070000694133],[0.2777345999929821],685.3169760000019,685.3169760000019,0.00747469998896122,0.00747469998896122,0.011703700001817197,0.05331509999814443,0.06026240000210237,0.10197319999861065,0.10884449999139179,1.0046887999924365,688.8167800000083,692.934674700009,,,,,,,,,,,,,,,,,,,,,,,,,,,,,12,A,2023-12-08_11h31.34.421,gca_avoidance_task,2022.2.4,144.02497970831448,
positions.xlsx,stimuli.xlsx,stimuli/Social1.png,stimuli/Social2.png,stimuli/Nonsocial1.png,stimuli/Nonsocial2.png,,"(0.7, -0.5)",cs_plus_ns,,,,,0,0,0,0,,,,,0,12,12,11,,,,,,,,,,,,,,,,,,,,,,,,,,,,,,,,,,,,,,,,,,,,,,,,,,,,,,,,,,,,,,693.4415857999993,694.7887894000014,692.934674700009,694.7887894000014,694.7887894000014,694.7887894000014,0.006608399999095127,0.01319359999615699,30,shock,1,[0.6528259000042453],[0.6528295000025537],695.4484744000074,695.4484744000074,0.007705199997872114,0.007705199997872114,0.01841390000481624,0.053093100010300986,0.059999100005370565,0.10167370000272058,0.1086866999976337,1.0044115000055172,698.9414269999979,703.2676195000095,,,,,,,,,,,,,,,,,,,,,,,,,,,,,12,A,2023-12-08_11h31.34.421,gca_avoidance_task,2022.2.4,144.02497970831448,
positions.xlsx,stimuli.xlsx,stimuli/Social1.png,stimuli/Social2.png,stimuli/Nonsocial1.png,stimuli/Nonsocial2.png,,"(0.7, 0.5)",cs_plus_s,,,,,0,0,0,0,,,,,0,13,13,2,,,,,,,,,,,,,,,,,,,,,,,,,,,,,,,,,,,,,,,,,,,,,,,,,,,,,,,,,,,,,,703.7745167999965,705.2536351000017,703.2676195000095,705.2536351000017,705.2536351000017,705.2536351000017,0.0061301999958232045,0.013385999991442077,30,shock,1,[0.278073299996322],[0.2780771999969147],705.5382994000101,705.5382994000101,0.007353299995884299,0.007353299995884299,0.018563899997388944,0.05325019999872893,0.060205899993889034,0.10183430000324734,0.10881849999714177,1.0046268000005512,709.0312830000039,713.3575113999977,,,,,,,,,,,,,,,,,,,,,,,,,,,,,12,A,2023-12-08_11h31.34.421,gca_avoidance_task,2022.2.4,144.02497970831448,
positions.xlsx,stimuli.xlsx,stimuli/Social1.png,stimuli/Social2.png,stimuli/Nonsocial1.png,stimuli/Nonsocial2.png,,"(0.7, -0.5)",cs_minus_ns,,,,,0,0,0,0,,,,,0,14,14,15,,,,,,,,,,,,,,,,,,,,,,,,,,,,,,,,,,,,,,,,,,,,,,,,,,,,,,,,,,,,,,713.8643806000036,714.9060313000082,713.3575113999977,714.9060313000082,714.9060313000082,714.9060313000082,0.007021500001428649,0.013369100008276291,35,reward,1,[0.535094000006211],[0.5350980000075651],715.447651399998,715.447651399998,0.007437399995978922,0.007437399995978922,0.018303299992112443,0.05299799999920651,0.05996489999233745,0.10158909999881871,0.10861270000168588,1.004360299994005,718.940588700003,723.1835221000074,,,,,,,,,,,,,,,,,,,,,,,,,,,,,12,A,2023-12-08_11h31.34.421,gca_avoidance_task,2022.2.4,144.02497970831448,
positions.xlsx,stimuli.xlsx,stimuli/Social1.png,stimuli/Social2.png,stimuli/Nonsocial1.png,stimuli/Nonsocial2.png,,"(-0.7, -0.5)",cs_minus_s,,,,,0,0,0,0,,,,,0,15,15,5,,,,,,,,,,,,,,,,,,,,,,,,,,,,,,,,,,,,,,,,,,,,,,,,,,,,,,,,,,,,,,723.6903985999961,725.4889182000043,723.1835221000074,725.4889182000043,725.4889182000043,725.4889182000043,0.005945000011706725,0.01298710000992287,40,reward,1,[0.24997230000735726],[0.24997600000642706],725.7458967999992,725.7458967999992,0.0069810999993933365,0.0069810999993933365,0.018452999996952713,0.0530430999933742,0.05999419999716338,0.10165820000111125,0.10866489999170881,1.0044278999994276,729.2388476000051,732.8358757999958,,,,,,,,,,,,,,,,,,,,,,,,,,,,,12,A,2023-12-08_11h31.34.421,gca_avoidance_task,2022.2.4,144.02497970831448,
positions.xlsx,stimuli.xlsx,stimuli/Social1.png,stimuli/Social2.png,stimuli/Nonsocial1.png,stimuli/Nonsocial2.png,,"(-0.7, -0.5)",cs_minus_ns,,,,,0,0,0,0,,,,,1,0,16,13,,,,,,,,,,,,,,,,,,,,,,,,,,,,,,,,,,,,,,,,,,,,,,,,,,,,,,,,,,,,,,733.3427863999968,735.2802134000085,732.8358757999958,735.2802134000085,735.2802134000085,735.2802134000085,0.006350499999825843,0.013221300003351644,45,reward,1,[0.15986889999476261],[0.1598725999938324],735.4468745000049,735.4468745000049,0.00754140000208281,0.00754140000208281,0.018422300010570325,0.05308040000090841,0.06005090000689961,0.10176670001237653,0.10867430000507738,1.0044766000064556,738.9398174000089,742.4883078999992,,,,,,,,,,,,,,,,,,,,,,,,,,,,,12,A,2023-12-08_11h31.34.421,gca_avoidance_task,2022.2.4,144.02497970831448,
positions.xlsx,stimuli.xlsx,stimuli/Social1.png,stimuli/Social2.png,stimuli/Nonsocial1.png,stimuli/Nonsocial2.png,,"(-0.7, 0.5)",cs_plus_s,,,,,0,0,0,0,,,,,1,1,17,0,,,,,,,,,,,,,,,,,,,,,,,,,,,,,,,,,,,,,,,,,,,,,,,,,,,,,,,,,,,,,,742.995156200006,744.043774100006,742.4883078999992,744.043774100006,744.043774100006,744.043774100006,0.005641199997626245,0.013615600008051842,45,shock,1,[2.708757300002617],[2.708760900000925],746.7589523000061,746.7589523000061,0.00707239999610465,0.00707239999610465,0.01861319999443367,0.05321600000024773,0.06022680000751279,0.10185490000003483,0.1088372999947751,1.0045606000057887,750.2519040000043,754.3905302000057,,,,,,,,,,,,,,,,,,,,,,,,,,,,,12,A,2023-12-08_11h31.34.421,gca_avoidance_task,2022.2.4,144.02497970831448,
positions.xlsx,stimuli.xlsx,stimuli/Social1.png,stimuli/Social2.png,stimuli/Nonsocial1.png,stimuli/Nonsocial2.png,,"(-0.7, -0.5)",cs_minus_s,,,,,0,0,0,0,,,,,1,2,18,5,,,,,,,,,,,,,,,,,,,,,,,,,,,,,,,,,,,,,,,,,,,,,,,,,,,,,,,,,,,,,,754.8975157000095,756.2516027000092,754.3905302000057,756.2516027000092,756.2516027000092,756.2516027000092,0.006018600004608743,0.013512699995771982,50,reward,1,[0.3756079000013415],[0.37561180000193417],756.6335259000043,756.6335259000043,0.0072859999927459285,0.0072859999927459285,0.01859199999307748,0.053222200003801845,0.060210299998288974,0.10192010000173468,0.10881219999282621,1.0045791000011377,760.1265167000092,763.7513161000097,,,,,,,,,,,,,,,,,,,,,,,,,,,,,12,A,2023-12-08_11h31.34.421,gca_avoidance_task,2022.2.4,144.02497970831448,
positions.xlsx,stimuli.xlsx,stimuli/Social1.png,stimuli/Social2.png,stimuli/Nonsocial1.png,stimuli/Nonsocial2.png,,"(-0.7, 0.5)",cs_plus_ns,,,,,0,0,0,0,,,,,1,3,19,8,,,,,,,,,,,,,,,,,,,,,,,,,,,,,,,,,,,,,,,,,,,,,,,,,,,,,,,,,,,,,,764.2581980999967,765.6053748999984,763.7513161000097,765.6053748999984,765.6053748999984,765.6053748999984,0.0070275999896693975,0.013180900001316331,50,shock,1,[0.1808959999907529],[0.18089999999210704],765.7928754000022,765.7928754000022,0.00737170000502374,0.00737170000502374,0.018146300004445948,0.05286899999191519,0.05982739999308251,0.1014809000043897,0.10840149999421556,1.0042337999911979,769.2858225000091,773.2856514000014,,,,,,,,,,,,,,,,,,,,,,,,,,,,,12,A,2023-12-08_11h31.34.421,gca_avoidance_task,2022.2.4,144.02497970831448,
positions.xlsx,stimuli.xlsx,stimuli/Social1.png,stimuli/Social2.png,stimuli/Nonsocial1.png,stimuli/Nonsocial2.png,,"(0.7, 0.5)",cs_minus_ns,,,,,0,0,0,0,,,,,1,4,20,14,,,,,,,,,,,,,,,,,,,,,,,,,,,,,,,,,,,,,,,,,,,,,,,,,,,,,,,,,,,,,,773.7925628000085,775.070272099998,773.2856514000014,775.070272099998,775.070272099998,775.070272099998,0.0067745999986073,0.013379199997871183,55,reward,1,[0.1948837999952957],[0.19488759999512695],775.271682000006,775.271682000006,0.00790739999501966,0.00790739999501966,0.01826959999743849,0.0529575999971712,0.059927099995547906,0.10151049999694806,0.10847920000378508,1.0042634999990696,778.7646093000076,782.4658768000081,,,,,,,,,,,,,,,,,,,,,,,,,,,,,12,A,2023-12-08_11h31.34.421,gca_avoidance_task,2022.2.4,144.02497970831448,
positions.xlsx,stimuli.xlsx,stimuli/Social1.png,stimuli/Social2.png,stimuli/Nonsocial1.png,stimuli/Nonsocial2.png,,"(-0.7, 0.5)",cs_minus_s,,,,,0,0,0,0,,,,,1,5,21,4,,,,,,,,,,,,,,,,,,,,,,,,,,,,,,,,,,,,,,,,,,,,,,,,,,,,,,,,,,,,,,782.9727335000061,784.5699043000059,782.4658768000081,784.5699043000059,784.5699043000059,784.5699043000059,0.007007699998212047,0.01315299999259878,60,reward,1,[0.24326479999581352],[0.24326879999716766],784.8199040000036,784.8199040000036,0.007200899999588728,0.007200899999588728,0.01827390000107698,0.05293140000139829,0.05986690000281669,0.10155510000186041,0.1085006999928737,1.004306999995606,788.3128710000019,792.437668300001,,,,,,,,,,,,,,,,,,,,,,,,,,,,,12,A,2023-12-08_11h31.34.421,gca_avoidance_task,2022.2.4,144.02497970831448,
positions.xlsx,stimuli.xlsx,stimuli/Social1.png,stimuli/Social2.png,stimuli/Nonsocial1.png,stimuli/Nonsocial2.png,,"(0.7, -0.5)",cs_plus_ns,,,,,0,0,0,0,,,,,1,6,22,11,,,,,,,,,,,,,,,,,,,,,,,,,,,,,,,,,,,,,,,,,,,,,,,,,,,,,,,,,,,,,,792.9445819000102,794.2084032999992,792.437668300001,794.2084032999992,794.2084032999992,794.2084032999992,0.006458000003476627,0.013090599997667596,60,shock,1,[0.1597985999978846],[0.15980239999771584],794.3751161999971,794.3751161999971,0.008392599993385375,0.008392599993385375,0.018678099993849173,0.05328170000575483,0.06023740000091493,0.10194120000232942,0.10886700000264682,1.0046749000030104,797.8680518000037,801.5901207999996,,,,,,,,,,,,,,,,,,,,,,,,,,,,,12,A,2023-12-08_11h31.34.421,gca_avoidance_task,2022.2.4,144.02497970831448,
positions.xlsx,stimuli.xlsx,stimuli/Social1.png,stimuli/Social2.png,stimuli/Nonsocial1.png,stimuli/Nonsocial2.png,,"(-0.7, 0.5)",cs_minus_ns,,,,,0,0,0,0,,,,,1,7,23,12,,,,,,,,,,,,,,,,,,,,,,,,,,,,,,,,,,,,,,,,,,,,,,,,,,,,,,,,,,,,,,802.0969754999969,803.9649734999985,801.5901207999996,803.9649734999985,803.9649734999985,803.9649734999985,0.006984000006923452,0.013439500005915761,65,reward,1,[0.3963371999998344],[0.3963411000004271],804.3677793000097,804.3677793000097,0.008032700003241189,0.008032700003241189,0.01818450000428129,0.052843099998426624,0.05979670000670012,0.10147189999406692,0.10841109999455512,1.0041472000011709,807.8606683999969,811.8327588000102,,,,,,,,,,,,,,,,,,,,,,,,,,,,,12,A,2023-12-08_11h31.34.421,gca_avoidance_task,2022.2.4,144.02497970831448,
positions.xlsx,stimuli.xlsx,stimuli/Social1.png,stimuli/Social2.png,stimuli/Nonsocial1.png,stimuli/Nonsocial2.png,,"(0.7, 0.5)",cs_plus_ns,,,,,0,0,0,0,,,,,1,8,24,10,,,,,,,,,,,,,,,,,,,,,,,,,,,,,,,,,,,,,,,,,,,,,,,,,,,,,,,,,,,,,,812.3396186000027,814.2492775999999,811.8327588000102,814.2492775999999,814.2492775999999,814.2492775999999,0.007357800001045689,,65,shock,1,[0.008366800000658259],[0.008370800002012402],814.2492775999999,814.2492775999999,0.007997299995622598,0.007997299995622598,0.016405300004407763,0.05104209999262821,0.05799689999548718,0.09966039999562781,0.10662399999273475,1.002490700004273,817.7422147000034,821.6379217000067,,,,,,,,,,,,,,,,,,,,,,,,,,,,,12,A,2023-12-08_11h31.34.421,gca_avoidance_task,2022.2.4,144.02497970831448,
positions.xlsx,stimuli.xlsx,stimuli/Social1.png,stimuli/Social2.png,stimuli/Nonsocial1.png,stimuli/Nonsocial2.png,,"(-0.7, -0.5)",cs_plus_ns,,,,,0,0,0,0,,,,,1,9,25,9,,,,,,,,,,,,,,,,,,,,,,,,,,,,,,,,,,,,,,,,,,,,,,,,,,,,,,,,,,,,,,822.1448341000068,823.2975433000101,821.6379217000067,823.2975433000101,823.2975433000101,823.2975433000101,0.006839699999545701,0.013351500005228445,65,shock,1,[0.21560880000470206],[0.21561270000529476],823.5197279999993,823.5197279999993,0.00808129999495577,0.00808129999495577,0.01837209999212064,0.05310940000344999,0.06002910000097472,0.10170780000044033,0.10866410000016913,1.0044425999949453,827.0127153000067,831.081995200002,,,,,,,,,,,,,,,,,,,,,,,,,,,,,12,A,2023-12-08_11h31.34.421,gca_avoidance_task,2022.2.4,144.02497970831448,
positions.xlsx,stimuli.xlsx,stimuli/Social1.png,stimuli/Social2.png,stimuli/Nonsocial1.png,stimuli/Nonsocial2.png,,"(-0.7, -0.5)",cs_plus_s,,,,,0,0,0,0,,,,,1,10,26,1,,,,,,,,,,,,,,,,,,,,,,,,,,,,,,,,,,,,,,,,,,,,,,,,,,,,,,,,,,,,,,831.5888541000022,833.2346426000004,831.081995200002,833.2346426000004,833.2346426000004,833.2346426000004,0.005726300005335361,0.01316630000656005,65,shock,1,[0.21532780000416096],[0.2153314000024693],833.4498939000041,833.4498939000041,0.007029300002614036,0.007029300002614036,0.011799200001405552,0.05341789999511093,0.06043630000203848,0.1020587999955751,0.10896719999436755,1.0048257000016747,836.9497640000045,840.5816330000089,,,,,,,,,,,,,,,,,,,,,,,,,,,,,12,A,2023-12-08_11h31.34.421,gca_avoidance_task,2022.2.4,144.02497970831448,
positions.xlsx,stimuli.xlsx,stimuli/Social1.png,stimuli/Social2.png,stimuli/Nonsocial1.png,stimuli/Nonsocial2.png,,"(0.7, -0.5)",cs_plus_s,,,,,0,0,0,0,,,,,1,11,27,3,,,,,,,,,,,,,,,,,,,,,,,,,,,,,,,,,,,,,,,,,,,,,,,,,,,,,,,,,,,,,,841.0884852000017,842.4842495000048,840.5816330000089,842.4842495000048,842.4842495000048,842.4842495000048,0.00588199999765493,0.012813199995434843,65,shock,1,[0.14580909999494907],[0.1458126999932574],842.6301119999989,842.6301119999989,0.006904699999722652,0.006904699999722652,0.011378300012438558,0.05301300001156051,0.06002440000884235,0.10160200000973418,0.10855470001115464,1.004343400010839,846.1299495999992,850.4561791000015,,,,,,,,,,,,,,,,,,,,,,,,,,,,,12,A,2023-12-08_11h31.34.421,gca_avoidance_task,2022.2.4,144.02497970831448,
positions.xlsx,stimuli.xlsx,stimuli/Social1.png,stimuli/Social2.png,stimuli/Nonsocial1.png,stimuli/Nonsocial2.png,,"(0.7, 0.5)",cs_plus_s,,,,,0,0,0,0,,,,,1,12,28,2,,,,,,,,,,,,,,,,,,,,,,,,,,,,,,,,,,,,,,,,,,,,,,,,,,,,,,,,,,,,,,850.9630909999978,852.928281200002,850.4561791000015,852.928281200002,852.928281200002,852.928281200002,0.005804000000352971,0.013051299989456311,65,shock,1,[0.22238899998774286],[0.22239309998985846],853.1574207000085,853.1574207000085,0.007787299997289665,0.007787299997289665,0.017760599992470816,0.05242259999795351,0.05938880000030622,0.10104399999545421,0.1080595999956131,1.0037633000029018,856.6504251000006,860.6918930999964,,,,,,,,,,,,,,,,,,,,,,,,,,,,,12,A,2023-12-08_11h31.34.421,gca_avoidance_task,2022.2.4,144.02497970831448,
positions.xlsx,stimuli.xlsx,stimuli/Social1.png,stimuli/Social2.png,stimuli/Nonsocial1.png,stimuli/Nonsocial2.png,,"(0.7, -0.5)",cs_minus_s,,,,,0,0,0,0,,,,,1,13,29,7,,,,,,,,,,,,,,,,,,,,,,,,,,,,,,,,,,,,,,,,,,,,,,,,,,,,,,,,,,,,,,861.1988081000018,862.254313700003,860.6918930999964,862.254313700003,862.254313700003,862.254313700003,0.0062319999997271225,0.013371299995924346,70,reward,1,[0.271423500002129],[0.27832470000430476],862.5390075000032,862.5390075000032,0.006998099997872487,0.006998099997872487,0.01818660000571981,0.05284889999893494,0.0598593000031542,0.10146770000574179,0.10842840000987053,1.004255000007106,866.0319640000089,869.6221278000012,,,,,,,,,,,,,,,,,,,,,,,,,,,,,12,A,2023-12-08_11h31.34.421,gca_avoidance_task,2022.2.4,144.02497970831448,
positions.xlsx,stimuli.xlsx,stimuli/Social1.png,stimuli/Social2.png,stimuli/Nonsocial1.png,stimuli/Nonsocial2.png,,"(0.7, -0.5)",cs_minus_ns,,,,,0,0,0,0,,,,,1,14,30,15,,,,,,,,,,,,,,,,,,,,,,,,,,,,,,,,,,,,,,,,,,,,,,,,,,,,,,,,,,,,,,870.1289491000061,871.2608570000011,869.6221278000012,871.2608570000011,871.2608570000011,871.2608570000011,0.0068365000042831525,0.013185200004954822,70,none,0,,,876.2676251000084,876.2676251000084,0.013789100004942156,0.013789100004942156,0.01993219999712892,0.0546563999960199,0.061584499999298714,0.10327369999140501,0.11023130000103265,1.0129470999963814,879.7605876000016,883.7881842000061,,,,,,,,,,,,,,,,,,,,,,,,,,,,,12,A,2023-12-08_11h31.34.421,gca_avoidance_task,2022.2.4,144.02497970831448,
positions.xlsx,stimuli.xlsx,stimuli/Social1.png,stimuli/Social2.png,stimuli/Nonsocial1.png,stimuli/Nonsocial2.png,,"(0.7, 0.5)",cs_minus_s,,,,,0,0,0,0,,,,,1,15,31,6,,,,,,,,,,,,,,,,,,,,,,,,,,,,,,,,,,,,,,,,,,,,,,,,,,,,,,,,,,,,,,884.2951285000017,885.8505990999984,883.7881842000061,885.8505990999984,885.8505990999984,885.8505990999984,0.006000299996230751,0.012925600007292815,75,reward,0,,,886.0311590000056,886.0311590000056,0.0071988999989116564,0.0071988999989116564,0.0181148999981815,0.052731799994944595,0.05971069999213796,0.10137910000048578,0.10827389999758452,1.0041148999880534,889.5240551000024,893.0377958000026,,,,,,,,,,,,,,,,,,,,,,,,,,,,,12,A,2023-12-08_11h31.34.421,gca_avoidance_task,2022.2.4,144.02497970831448,
positions.xlsx,stimuli.xlsx,stimuli/Social1.png,stimuli/Social2.png,stimuli/Nonsocial1.png,stimuli/Nonsocial2.png,,"(0.7, -0.5)",cs_plus_s,,,,,0,0,0,0,,,,,,,,,0,0,0,3,,,,,,,,,,,,,,,,,,,,,,,,,,,,,,,,,,,,,,,,,,,,,,,,,,,,,,,,,,908.0095010000077,909.5232461999985,907.50950130001,909.5232461999985,909.5232461999985,909.5232461999985,0.006269900011830032,0.013140800001565367,75,none,0,,,914.5300210999994,914.5300210999994,0.0134441000118386,0.0134441000118386,0.01988040001015179,0.05458120000548661,0.061530100007075816,0.10320870000577997,0.11010560000431724,1.012853600012022,918.0229187000077,921.8839169999992,893.0377958000026,893.0377958000026,893.0377958000026,893.0377958000026,space,12.577648200007388,,,,,,,,,,,,,,,,,,,,,,,12,A,2023-12-08_11h31.34.421,gca_avoidance_task,2022.2.4,144.02497970831448,
positions.xlsx,stimuli.xlsx,stimuli/Social1.png,stimuli/Social2.png,stimuli/Nonsocial1.png,stimuli/Nonsocial2.png,,"(0.7, -0.5)",cs_minus_s,,,,,0,0,0,0,,,,,,,,,0,1,1,7,,,,,,,,,,,,,,,,,,,,,,,,,,,,,,,,,,,,,,,,,,,,,,,,,,,,,,,,,,922.3907849000097,923.4879658999998,921.8839169999992,923.4879658999998,923.4879658999998,923.4879658999998,0.005949600003077649,0.013356000010389835,80,reward,1,[4.354320300000836],[4.3543237000121735],927.8488847999979,927.8488847999979,0.007023800004390068,0.007023800004390068,0.018204899999545887,0.05286480000359006,0.05980420000560116,0.10145859999465756,0.10841839999193326,1.0042223000054946,931.3418919999967,934.9945135000016,,,,,,,,,,,,,,,,,,,,,,,,,,,,,12,A,2023-12-08_11h31.34.421,gca_avoidance_task,2022.2.4,144.02497970831448,
positions.xlsx,stimuli.xlsx,stimuli/Social1.png,stimuli/Social2.png,stimuli/Nonsocial1.png,stimuli/Nonsocial2.png,,"(0.7, 0.5)",cs_minus_s,,,,,0,0,0,0,,,,,,,,,0,2,2,6,,,,,,,,,,,,,,,,,,,,,,,,,,,,,,,,,,,,,,,,,,,,,,,,,,,,,,,,,,935.5013928999979,936.6194002999982,934.9945135000016,936.6194002999982,936.6194002999982,936.6194002999982,0.005963299990980886,0.013161700000637211,85,reward,1,[0.40991989999020007],[0.4099236000038218],937.0360624000023,937.0360624000023,0.0074354999960632995,0.0074354999960632995,0.0186620999884326,0.05330169999797363,0.06024320000142325,0.10190480000164825,0.10887859998911154,1.0046416999975918,940.5289712000085,944.6816044000007,,,,,,,,,,,,,,,,,,,,,,,,,,,,,12,A,2023-12-08_11h31.34.421,gca_avoidance_task,2022.2.4,144.02497970831448,
positions.xlsx,stimuli.xlsx,stimuli/Social1.png,stimuli/Social2.png,stimuli/Nonsocial1.png,stimuli/Nonsocial2.png,,"(-0.7, -0.5)",cs_minus_s,,,,,0,0,0,0,,,,,,,,,0,3,3,5,,,,,,,,,,,,,,,,,,,,,,,,,,,,,,,,,,,,,,,,,,,,,,,,,,,,,,,,,,945.188459099998,946.209285200006,944.6816044000007,946.209285200006,946.209285200006,946.209285200006,0.0058311999891884625,0.013086299994029105,90,reward,1,[0.4101032999897143],[0.41010729999106843],946.6259644000093,946.6259644000093,0.007455800005118363,0.007455800005118363,0.018409399999654852,0.05307330000505317,0.060059000010369346,0.10172370000509545,0.10865439999906812,1.0044036000035703,950.118864700009,954.5492875000054,,,,,,,,,,,,,,,,,,,,,,,,,,,,,12,A,2023-12-08_11h31.34.421,gca_avoidance_task,2022.2.4,144.02497970831448,
positions.xlsx,stimuli.xlsx,stimuli/Social1.png,stimuli/Social2.png,stimuli/Nonsocial1.png,stimuli/Nonsocial2.png,,"(-0.7, -0.5)",cs_plus_ns,,,,,0,0,0,0,,,,,,,,,0,4,4,9,,,,,,,,,,,,,,,,,,,,,,,,,,,,,,,,,,,,,,,,,,,,,,,,,,,,,,,,,,955.0561894999992,956.9102565000067,954.5492875000054,956.9102565000067,956.9102565000067,956.9102565000067,0.007541500002844259,0.013366999992285855,90,shock,1,[0.5283402000059141],[0.5283441999927163],957.4449775999965,957.4449775999965,0.00793619999603834,0.00793619999603834,0.018192400006228127,0.052823000005446374,0.059832300001289696,0.10145879999618046,0.10841699999582488,1.0042352000018582,960.9379409999965,965.3474596000015,,,,,,,,,,,,,,,,,,,,,,,,,,,,,12,A,2023-12-08_11h31.34.421,gca_avoidance_task,2022.2.4,144.02497970831448,
positions.xlsx,stimuli.xlsx,stimuli/Social1.png,stimuli/Social2.png,stimuli/Nonsocial1.png,stimuli/Nonsocial2.png,,"(-0.7, 0.5)",cs_plus_s,,,,,0,0,0,0,,,,,,,,,0,5,5,0,,,,,,,,,,,,,,,,,,,,,,,,,,,,,,,,,,,,,,,,,,,,,,,,,,,,,,,,,,965.854341600003,967.8404225999984,965.3474596000015,967.8404225999984,967.8404225999984,967.8404225999984,0.0060403000097721815,0.013029900001129135,90,shock,1,[2.0900800000090385],[2.0900857000087854],969.9374990000069,969.9374990000069,0.008050899996305816,0.008050899996305816,0.018969299999298528,0.0536522999900626,0.06063480000011623,0.1022229999944102,0.1091971999994712,1.004963300001691,973.4304780000093,977.5969678999973,,,,,,,,,,,,,,,,,,,,,,,,,,,,,12,A,2023-12-08_11h31.34.421,gca_avoidance_task,2022.2.4,144.02497970831448,
positions.xlsx,stimuli.xlsx,stimuli/Social1.png,stimuli/Social2.png,stimuli/Nonsocial1.png,stimuli/Nonsocial2.png,,"(-0.7, 0.5)",cs_minus_ns,,,,,0,0,0,0,,,,,,,,,0,6,6,12,,,,,,,,,,,,,,,,,,,,,,,,,,,,,,,,,,,,,,,,,,,,,,,,,,,,,,,,,,978.1038541000016,979.4163307999988,977.5969678999973,979.4163307999988,979.4163307999988,979.4163307999988,0.006380200007697567,0.013439900008961558,95,reward,1,[0.5489331999997376],[0.5489367999980459],979.9718544000061,979.9718544000061,0.007604599988553673,0.007604599988553673,0.018226299987873062,0.052882099989801645,0.05986669998674188,0.10151399999449495,0.10845569999946747,1.0042733999871416,983.4647826,987.1243587000063,,,,,,,,,,,,,,,,,,,,,,,,,,,,,12,A,2023-12-08_11h31.34.421,gca_avoidance_task,2022.2.4,144.02497970831448,
positions.xlsx,stimuli.xlsx,stimuli/Social1.png,stimuli/Social2.png,stimuli/Nonsocial1.png,stimuli/Nonsocial2.png,,"(-0.7, 0.5)",cs_plus_ns,,,,,0,0,0,0,,,,,,,,,0,7,7,8,,,,,,,,,,,,,,,,,,,,,,,,,,,,,,,,,,,,,,,,,,,,,,,,,,,,,,,,,,987.6312669000035,989.5547982999997,987.1243587000063,989.5547982999997,989.5547982999997,989.5547982999997,0.0070229000120889395,0.013489800010574982,95,shock,0,,,991.0963943000097,991.0963943000097,0.007675299988477491,0.007675299988477491,0.018466800000169314,0.053089499997440726,0.06011199999193195,0.10175669999443926,0.1087025999877369,1.004471399995964,994.5894044000015,998.4364376000012,,,,,,,,,,,,,,,,,,,,,,,,,,,,,12,A,2023-12-08_11h31.34.421,gca_avoidance_task,2022.2.4,144.02497970831448,
positions.xlsx,stimuli.xlsx,stimuli/Social1.png,stimuli/Social2.png,stimuli/Nonsocial1.png,stimuli/Nonsocial2.png,,"(0.7, -0.5)",cs_plus_ns,,,,,0,0,0,0,,,,,,,,,0,8,8,11,,,,,,,,,,,,,,,,,,,,,,,,,,,,,,,,,,,,,,,,,,,,,,,,,,,,,,,,,,998.9433028000058,1000.6932281000045,998.4364376000012,1000.6932281000045,1000.6932281000045,1000.6932281000045,0.007090099999913946,0.013100399999530055,95,none,0,,,1005.7000141000026,1005.7000141000026,0.014375300001120195,0.014375300001120195,0.019863599998643622,0.054567400002270006,0.06156990000454243,0.10316030000103638,0.11012140000821091,1.0128198000020348,1009.1929622000025,1013.4149942000076,,,,,,,,,,,,,,,,,,,,,,,,,,,,,12,A,2023-12-08_11h31.34.421,gca_avoidance_task,2022.2.4,144.02497970831448,
positions.xlsx,stimuli.xlsx,stimuli/Social1.png,stimuli/Social2.png,stimuli/Nonsocial1.png,stimuli/Nonsocial2.png,,"(0.7, 0.5)",cs_plus_s,,,,,0,0,0,0,,,,,,,,,0,9,9,2,,,,,,,,,,,,,,,,,,,,,,,,,,,,,,,,,,,,,,,,,,,,,,,,,,,,,,,,,,1013.9219016999996,1015.4079509000003,1013.4149942000076,1015.4079509000003,1015.4079509000003,1015.4079509000003,0.006137699994724244,0.012903800001367927,95,none,0,,,1020.4146951000002,1020.4146951000002,0.013197799999034032,0.013197799999034032,0.019683899998199195,0.05430839999462478,0.06128379999427125,0.10293059999821708,0.10990870000387076,1.012656999999308,1023.9076668000052,1027.4283483000036,,,,,,,,,,,,,,,,,,,,,,,,,,,,,12,A,2023-12-08_11h31.34.421,gca_avoidance_task,2022.2.4,144.02497970831448,
positions.xlsx,stimuli.xlsx,stimuli/Social1.png,stimuli/Social2.png,stimuli/Nonsocial1.png,stimuli/Nonsocial2.png,,"(0.7, -0.5)",cs_minus_ns,,,,,0,0,0,0,,,,,,,,,0,10,10,15,,,,,,,,,,,,,,,,,,,,,,,,,,,,,,,,,,,,,,,,,,,,,,,,,,,,,,,,,,1027.9352054000046,1029.6504270000005,1027.4283483000036,1029.6504270000005,1029.6504270000005,1029.6504270000005,0.00643540000601206,0.01295429999299813,100,reward,1,[3.7290202000003774],[3.7360649000038393],1033.3933426000003,1033.3933426000003,0.007526100001996383,0.007526100001996383,0.018425500005832873,0.05309220000344794,0.060054600005969405,0.10166250000474975,0.10861090000253171,1.0044061000080546,1036.8863178000029,1041.295806299997,,,,,,,,,,,,,,,,,,,,,,,,,,,,,12,A,2023-12-08_11h31.34.421,gca_avoidance_task,2022.2.4,144.02497970831448,
positions.xlsx,stimuli.xlsx,stimuli/Social1.png,stimuli/Social2.png,stimuli/Nonsocial1.png,stimuli/Nonsocial2.png,,"(-0.7, 0.5)",cs_minus_s,,,,,0,0,0,0,,,,,,,,,0,11,11,4,,,,,,,,,,,,,,,,,,,,,,,,,,,,,,,,,,,,,,,,,,,,,,,,,,,,,,,,,,1041.8027087000082,1043.6290460000018,1041.295806299997,1043.6290460000018,1043.6290460000018,1043.6290460000018,0.006351800009724684,0.013430200007860549,105,reward,1,[0.5976622000016505],[0.5976660000014817],1044.2332371000084,1044.2332371000084,0.007228200003737584,0.007228200003737584,0.017938200006028637,0.05258529999991879,0.059534400003030896,0.1012161999969976,0.10816279999562539,1.0039211999974214,1047.7261771000049,1051.3371243000001,,,,,,,,,,,,,,,,,,,,,,,,,,,,,12,A,2023-12-08_11h31.34.421,gca_avoidance_task,2022.2.4,144.02497970831448,
positions.xlsx,stimuli.xlsx,stimuli/Social1.png,stimuli/Social2.png,stimuli/Nonsocial1.png,stimuli/Nonsocial2.png,,"(-0.7, -0.5)",cs_plus_s,,,,,0,0,0,0,,,,,,,,,0,12,12,1,,,,,,,,,,,,,,,,,,,,,,,,,,,,,,,,,,,,,,,,,,,,,,,,,,,,,,,,,,1051.8439862000087,1052.8578425000014,1051.3371243000001,1052.8578425000014,1052.8578425000014,1052.8578425000014,0.006624100002227351,0.013239799998700619,105,shock,1,[0.16702029999578372],[0.16702380000788253],1053.0315361999965,1053.0315361999965,0.007659700000658631,0.007659700000658631,0.018334800013690256,0.05294750000757631,0.05981600000814069,0.1014436000114074,0.10846570000285283,1.004215800014208,1056.5243924999959,1060.9617497,,,,,,,,,,,,,,,,,,,,,,,,,,,,,12,A,2023-12-08_11h31.34.421,gca_avoidance_task,2022.2.4,144.02497970831448,
positions.xlsx,stimuli.xlsx,stimuli/Social1.png,stimuli/Social2.png,stimuli/Nonsocial1.png,stimuli/Nonsocial2.png,,"(-0.7, -0.5)",cs_minus_ns,,,,,0,0,0,0,,,,,,,,,0,13,13,13,,,,,,,,,,,,,,,,,,,,,,,,,,,,,,,,,,,,,,,,,,,,,,,,,,,,,,,,,,1061.4685982000083,1062.8782894000033,1060.9617497,1062.8782894000033,1062.8782894000033,1062.8782894000033,0.007190000003902242,0.013379399999394082,110,reward,1,[0.31297309999354184],[0.3129768999933731],1063.1977213000064,1063.1977213000064,0.007350699990638532,0.007350699990638532,0.018330899998545647,0.05302039999514818,0.05996819998836145,0.10161230000085197,0.10856189999321941,1.0043930999963777,1066.690686300004,1071.0863314000017,,,,,,,,,,,,,,,,,,,,,,,,,,,,,12,A,2023-12-08_11h31.34.421,gca_avoidance_task,2022.2.4,144.02497970831448,
positions.xlsx,stimuli.xlsx,stimuli/Social1.png,stimuli/Social2.png,stimuli/Nonsocial1.png,stimuli/Nonsocial2.png,,"(0.7, 0.5)",cs_minus_ns,,,,,0,0,0,0,,,,,,,,,0,14,14,14,,,,,,,,,,,,,,,,,,,,,,,,,,,,,,,,,,,,,,,,,,,,,,,,,,,,,,,,,,1071.593231699997,1073.259814799996,1071.0863314000017,1073.259814799996,1073.259814799996,1073.259814799996,0.006648800001130439,0.01305960000900086,115,reward,1,[0.46524080001108814],[0.46524450001015794],1073.732032400003,1073.732032400003,0.007275900003151037,0.007275900003151037,0.01838819999829866,0.053113100002519786,0.06000830000266433,0.10164710000390187,0.10862400000041816,1.0044299000001047,1077.2249528999964,1081.481765500008,,,,,,,,,,,,,,,,,,,,,,,,,,,,,12,A,2023-12-08_11h31.34.421,gca_avoidance_task,2022.2.4,144.02497970831448,
positions.xlsx,stimuli.xlsx,stimuli/Social1.png,stimuli/Social2.png,stimuli/Nonsocial1.png,stimuli/Nonsocial2.png,,"(0.7, 0.5)",cs_plus_ns,,,,,0,0,0,0,,,,,,,,,0,15,15,10,,,,,,,,,,,,,,,,,,,,,,,,,,,,,,,,,,,,,,,,,,,,,,,,,,,,,,,,,,1081.9886387000006,1083.294146100001,1081.481765500008,1083.294146100001,1083.294146100001,1083.294146100001,0.006911699994816445,0.013087199986330234,115,none,0,,,1088.3008891000063,1088.3008891000063,0.013739099988015369,0.013739099988015369,0.019836799998302013,0.054558699994231574,0.06148129999928642,0.10312439998961054,0.11009289999492466,1.0128121999878203,1091.793828599999,1095.4464917000005,,,,,,,,,,,,,,,,,,,,,,,,,,,,,12,A,2023-12-08_11h31.34.421,gca_avoidance_task,2022.2.4,144.02497970831448,
positions.xlsx,stimuli.xlsx,stimuli/Social1.png,stimuli/Social2.png,stimuli/Nonsocial1.png,stimuli/Nonsocial2.png,,"(0.7, -0.5)",cs_minus_s,,,,,0,0,0,0,,,,,,,,,1,0,16,7,,,,,,,,,,,,,,,,,,,,,,,,,,,,,,,,,,,,,,,,,,,,,,,,,,,,,,,,,,1095.9533886999998,1097.8144017000013,1095.4464917000005,1097.8144017000013,1097.8144017000013,1097.8144017000013,0.006362100000842474,0.012890500001958571,120,reward,1,[0.47205910000775475],[0.47206260000530165],1098.2935684999975,1098.2935684999975,0.007028200008790009,0.007028200008790009,0.018471600007615052,0.053127600011066534,0.06012419999751728,0.10172250001050998,0.10871559999941383,1.0044813999993494,1101.7865362000011,1105.3974954000005,,,,,,,,,,,,,,,,,,,,,,,,,,,,,12,A,2023-12-08_11h31.34.421,gca_avoidance_task,2022.2.4,144.02497970831448,
positions.xlsx,stimuli.xlsx,stimuli/Social1.png,stimuli/Social2.png,stimuli/Nonsocial1.png,stimuli/Nonsocial2.png,,"(0.7, 0.5)",cs_minus_s,,,,,0,0,0,0,,,,,,,,,1,1,17,6,,,,,,,,,,,,,,,,,,,,,,,,,,,,,,,,,,,,,,,,,,,,,,,,,,,,,,,,,,1105.9043543000007,1106.9251562999998,1105.3974954000005,1106.9251562999998,1106.9251562999998,1106.9251562999998,0.005886700004339218,0.013487500007613562,125,reward,1,[0.5074168999999529],[0.5074204999982612],1107.4390673000016,1107.4390673000016,0.0075813000003108755,0.0075813000003108755,0.018619199996464886,0.05329090000304859,0.06024019999313168,0.10188669999479316,0.10881849999714177,1.0046222999953898,1110.9319483,1115.4248309999966,,,,,,,,,,,,,,,,,,,,,,,,,,,,,12,A,2023-12-08_11h31.34.421,gca_avoidance_task,2022.2.4,144.02497970831448,
positions.xlsx,stimuli.xlsx,stimuli/Social1.png,stimuli/Social2.png,stimuli/Nonsocial1.png,stimuli/Nonsocial2.png,,"(0.7, -0.5)",cs_minus_ns,,,,,0,0,0,0,,,,,,,,,1,2,18,15,,,,,,,,,,,,,,,,,,,,,,,,,,,,,,,,,,,,,,,,,,,,,,,,,,,,,,,,,,1115.9317555000016,1117.2441834000056,1115.4248309999966,1117.2441834000056,1117.2441834000056,1117.2441834000056,0.007390200000372715,0.012802500001271255,125,none,0,,,1122.2509307,1122.2509307,0.013400899988482706,0.013400899988482706,0.01957140000013169,0.05428699999174569,0.06118979999155272,0.10287699999753386,0.10988139999972191,1.0125506999902427,1125.7438926000032,1129.2576631999982,,,,,,,,,,,,,,,,,,,,,,,,,,,,,12,A,2023-12-08_11h31.34.421,gca_avoidance_task,2022.2.4,144.02497970831448,
positions.xlsx,stimuli.xlsx,stimuli/Social1.png,stimuli/Social2.png,stimuli/Nonsocial1.png,stimuli/Nonsocial2.png,,"(0.7, -0.5)",cs_plus_s,,,,,0,0,0,0,,,,,,,,,1,3,19,3,,,,,,,,,,,,,,,,,,,,,,,,,,,,,,,,,,,,,,,,,,,,,,,,,,,,,,,,,,1129.764510100009,1131.1811315000086,1129.2576631999982,1131.1811315000086,1131.1811315000086,1131.1811315000086,0.0060575999959837645,0.01320839999243617,125,none,0,,,1136.1879044000088,1136.1879044000088,0.01355899999907706,0.01355899999907706,0.020004099991638213,0.05461019999347627,0.06158779999532271,0.10331150000274647,0.11023749999003485,1.012956899998244,1139.6808350000065,1143.437605900006,,,,,,,,,,,,,,,,,,,,,,,,,,,,,12,A,2023-12-08_11h31.34.421,gca_avoidance_task,2022.2.4,144.02497970831448,
positions.xlsx,stimuli.xlsx,stimuli/Social1.png,stimuli/Social2.png,stimuli/Nonsocial1.png,stimuli/Nonsocial2.png,,"(-0.7, 0.5)",cs_plus_ns,,,,,0,0,0,0,,,,,,,,,1,4,20,8,,,,,,,,,,,,,,,,,,,,,,,,,,,,,,,,,,,,,,,,,,,,,,,,,,,,,,,,,,1143.9445577000006,1145.1736512000061,1143.437605900006,1145.1736512000061,1145.1736512000061,1145.1736512000061,0.00649159999738913,0.013162300005205907,125,shock,1,[0.22246180000365712],[0.22246580000501126],1145.40279800001,1145.40279800001,0.007389700011117384,0.007389700011117384,0.01827130001038313,0.05299080000258982,0.060018100004526787,0.10158280000905506,0.10854560000007041,1.004305500013288,1148.8957537999959,1152.4789555000025,,,,,,,,,,,,,,,,,,,,,,,,,,,,,12,A,2023-12-08_11h31.34.421,gca_avoidance_task,2022.2.4,144.02497970831448,
positions.xlsx,stimuli.xlsx,stimuli/Social1.png,stimuli/Social2.png,stimuli/Nonsocial1.png,stimuli/Nonsocial2.png,,"(-0.7, -0.5)",cs_minus_ns,,,,,0,0,0,0,,,,,,,,,1,5,21,13,,,,,,,,,,,,,,,,,,,,,,,,,,,,,,,,,,,,,,,,,,,,,,,,,,,,,,,,,,1152.9858561,1154.1524612000067,1152.4789555000025,1154.1524612000067,1154.1524612000067,1154.1524612000067,0.006837699998868629,0.013319999998202547,130,reward,1,[0.5835404999961611],[0.5835441000090213],1154.7427408000076,1154.7427408000076,0.00709320000896696,0.00709320000896696,0.01877690000401344,0.053462099996977486,0.06039640000381041,0.10206689999904484,0.10900620000029448,1.00474160000158,1158.2356535,1162.0827503000037,,,,,,,,,,,,,,,,,,,,,,,,,,,,,12,A,2023-12-08_11h31.34.421,gca_avoidance_task,2022.2.4,144.02497970831448,
positions.xlsx,stimuli.xlsx,stimuli/Social1.png,stimuli/Social2.png,stimuli/Nonsocial1.png,stimuli/Nonsocial2.png,,"(0.7, 0.5)",cs_plus_ns,,,,,0,0,0,0,,,,,,,,,1,6,22,10,,,,,,,,,,,,,,,,,,,,,,,,,,,,,,,,,,,,,,,,,,,,,,,,,,,,,,,,,,1162.5896579999971,1164.2562201999972,1162.0827503000037,1164.2562201999972,1164.2562201999972,1164.2562201999972,0.006523999996716157,0.013393500004895031,130,none,0,,,1169.2629883000045,1169.2629883000045,0.01428499999747146,0.01428499999747146,0.020164300003671087,0.05486830000882037,0.061828200006857514,0.10345229999802541,0.11040570000477601,1.0131930000061402,1172.7559555000043,1176.957195199997,,,,,,,,,,,,,,,,,,,,,,,,,,,,,12,A,2023-12-08_11h31.34.421,gca_avoidance_task,2022.2.4,144.02497970831448,
positions.xlsx,stimuli.xlsx,stimuli/Social1.png,stimuli/Social2.png,stimuli/Nonsocial1.png,stimuli/Nonsocial2.png,,"(0.7, 0.5)",cs_minus_ns,,,,,0,0,0,0,,,,,,,,,1,7,23,14,,,,,,,,,,,,,,,,,,,,,,,,,,,,,,,,,,,,,,,,,,,,,,,,,,,,,,,,,,1177.4640396000032,1179.0195329999988,1176.957195199997,1179.0195329999988,1179.0195329999988,1179.0195329999988,0.006159600001410581,0.013380100004724227,135,reward,1,[1.111428899996099],[1.1114325999951689],1180.137584199998,1180.137584199998,0.007876500007114373,0.007876500007114373,0.018442100001266226,0.05316530000709463,0.060115200001746416,0.10172740000416525,0.10870019999856595,1.0045065000012983,1183.6305129000102,1187.5886661999975,,,,,,,,,,,,,,,,,,,,,,,,,,,,,12,A,2023-12-08_11h31.34.421,gca_avoidance_task,2022.2.4,144.02497970831448,
positions.xlsx,stimuli.xlsx,stimuli/Social1.png,stimuli/Social2.png,stimuli/Nonsocial1.png,stimuli/Nonsocial2.png,,"(-0.7, -0.5)",cs_plus_ns,,,,,0,0,0,0,,,,,,,,,1,8,24,9,,,,,,,,,,,,,,,,,,,,,,,,,,,,,,,,,,,,,,,,,,,,,,,,,,,,,,,,,,1188.0955617,1189.526094700006,1187.5886661999975,1189.526094700006,1189.526094700006,1189.526094700006,0.00660650001373142,0.013132400010363199,135,shock,1,[0.16666050000640098],[0.17364000000816304],1189.7066145999997,1189.7066145999997,0.00782660000550095,0.00782660000550095,0.0181287000013981,0.052814099995885044,0.0597498999995878,0.10141640000801999,0.10843880000174977,1.0042009000026155,1193.1995880000031,1197.0397202000022,,,,,,,,,,,,,,,,,,,,,,,,,,,,,12,A,2023-12-08_11h31.34.421,gca_avoidance_task,2022.2.4,144.02497970831448,
positions.xlsx,stimuli.xlsx,stimuli/Social1.png,stimuli/Social2.png,stimuli/Nonsocial1.png,stimuli/Nonsocial2.png,,"(-0.7, -0.5)",cs_minus_s,,,,,0,0,0,0,,,,,,,,,1,9,25,5,,,,,,,,,,,,,,,,,,,,,,,,,,,,,,,,,,,,,,,,,,,,,,,,,,,,,,,,,,1197.5465744999965,1199.2548712999996,1197.0397202000022,1199.2548712999996,1199.2548712999996,1199.2548712999996,0.006270700003369711,0.013279500009957701,140,reward,1,[0.3959002000046894],[0.39590420000604354],1199.6576117000077,1199.6576117000077,0.007238499994855374,0.007238499994855374,0.018572200002381578,0.0532898999954341,0.06020149998948909,0.10189079999690875,0.10883199999807402,1.0046061000030022,1203.150609999997,1207.5323392999999,,,,,,,,,,,,,,,,,,,,,,,,,,,,,12,A,2023-12-08_11h31.34.421,gca_avoidance_task,2022.2.4,144.02497970831448,
positions.xlsx,stimuli.xlsx,stimuli/Social1.png,stimuli/Social2.png,stimuli/Nonsocial1.png,stimuli/Nonsocial2.png,,"(-0.7, 0.5)",cs_minus_s,,,,,0,0,0,0,,,,,,,,,1,10,26,4,,,,,,,,,,,,,,,,,,,,,,,,,,,,,,,,,,,,,,,,,,,,,,,,,,,,,,,,,,1208.0392182000069,1209.2336149000039,1207.5323392999999,1209.2336149000039,1209.2336149000039,1209.2336149000039,0.006267300006584264,0.013067600011709146,145,reward,1,[0.40989590001117904],[0.40990009999950416],1209.65024670001,1209.65024670001,0.007658400005311705,0.007658400005311705,0.01858310001261998,0.053251300007104874,0.06020160000480246,0.1018542000092566,0.1088302999996813,1.0046330000041053,1213.1432662000007,1217.4139177000034,,,,,,,,,,,,,,,,,,,,,,,,,,,,,12,A,2023-12-08_11h31.34.421,gca_avoidance_task,2022.2.4,144.02497970831448,
positions.xlsx,stimuli.xlsx,stimuli/Social1.png,stimuli/Social2.png,stimuli/Nonsocial1.png,stimuli/Nonsocial2.png,,"(0.7, -0.5)",cs_plus_ns,,,,,0,0,0,0,,,,,,,,,1,11,27,11,,,,,,,,,,,,,,,,,,,,,,,,,,,,,,,,,,,,,,,,,,,,,,,,,,,,,,,,,,1217.9207719999977,1218.9624537000054,1217.4139177000034,1218.9624537000054,1218.9624537000054,1218.9624537000054,0.007049100007861853,0.013188800003263168,145,none,0,,,1223.9760829000006,1223.9760829000006,0.014730499999132007,0.014730499999132007,0.026854800002183765,0.054589899998973124,0.06157059999532066,0.10320850000425708,0.1101764000050025,1.0129217000067001,1227.4621527999989,1231.8091818000103,,,,,,,,,,,,,,,,,,,,,,,,,,,,,12,A,2023-12-08_11h31.34.421,gca_avoidance_task,2022.2.4,144.02497970831448,
positions.xlsx,stimuli.xlsx,stimuli/Social1.png,stimuli/Social2.png,stimuli/Nonsocial1.png,stimuli/Nonsocial2.png,,"(-0.7, 0.5)",cs_minus_ns,,,,,0,0,0,0,,,,,,,,,1,12,28,12,,,,,,,,,,,,,,,,,,,,,,,,,,,,,,,,,,,,,,,,,,,,,,,,,,,,,,,,,,1232.316057899996,1233.3298744000058,1231.8091818000103,1233.3298744000058,1233.3298744000058,1233.3298744000058,0.006973900002776645,0.012522699995315634,150,reward,1,[0.16611209999246057],[0.16611559999000747],1233.503521999999,1233.503521999999,0.007438100001309067,0.007438100001309067,0.018876499991165474,0.05349459999706596,0.06047709999256767,0.10210029999143444,0.10906590000377037,1.0049073999980465,1236.996457500005,1240.7046520000004,,,,,,,,,,,,,,,,,,,,,,,,,,,,,12,A,2023-12-08_11h31.34.421,gca_avoidance_task,2022.2.4,144.02497970831448,
positions.xlsx,stimuli.xlsx,stimuli/Social1.png,stimuli/Social2.png,stimuli/Nonsocial1.png,stimuli/Nonsocial2.png,,"(0.7, 0.5)",cs_plus_s,,,,,0,0,0,0,,,,,,,,,1,13,29,2,,,,,,,,,,,,,,,,,,,,,,,,,,,,,,,,,,,,,,,,,,,,,,,,,,,,,,,,,,1241.2115517000057,1242.843416100004,1240.7046520000004,1242.843416100004,1242.843416100004,1242.843416100004,0.005790499999420717,0.013373499998124316,150,shock,1,[0.5419985000044107],[0.5420021000027191],1243.3920157999964,1243.3920157999964,0.006861500005470589,0.006861500005470589,0.018570100000943057,0.05328560000634752,0.06021830000099726,0.10188679999555461,0.10881760000484064,1.0045590000081575,1246.8849808000086,1251.1417246000055,,,,,,,,,,,,,,,,,,,,,,,,,,,,,12,A,2023-12-08_11h31.34.421,gca_avoidance_task,2022.2.4,144.02497970831448,
positions.xlsx,stimuli.xlsx,stimuli/Social1.png,stimuli/Social2.png,stimuli/Nonsocial1.png,stimuli/Nonsocial2.png,,"(-0.7, 0.5)",cs_plus_s,,,,,0,0,0,0,,,,,,,,,1,14,30,0,,,,,,,,,,,,,,,,,,,,,,,,,,,,,,,,,,,,,,,,,,,,,,,,,,,,,,,,,,1251.6486325000005,1252.8916177000065,1251.1417246000055,1252.8916177000065,1252.8916177000065,1252.8916177000065,0.005903800003579818,0.013144199998350814,150,none,0,,,1257.8983985000086,1257.8983985000086,0.013329499997780658,0.013329499997780658,0.01988330000312999,0.05455889999575447,0.061521299998275936,0.10324650000256952,0.11009030000423081,1.0128283999947598,1261.3912914000102,1265.1967519000027,,,,,,,,,,,,,,,,,,,,,,,,,,,,,12,A,2023-12-08_11h31.34.421,gca_avoidance_task,2022.2.4,144.02497970831448,
positions.xlsx,stimuli.xlsx,stimuli/Social1.png,stimuli/Social2.png,stimuli/Nonsocial1.png,stimuli/Nonsocial2.png,,"(-0.7, -0.5)",cs_plus_s,,,,,0,0,0,0,,,,,,,,,1,15,31,1,,,,,,,,,,,,,,,,,,,,,,,,,,,,,,,,,,,,,,,,,,,,,,,,,,,,,,,,,,1265.7036109000037,1267.446578700008,1265.1967519000027,1267.446578700008,1267.446578700008,1267.446578700008,0.006482400000095367,0.013032400005613454,150,shock,1,[0.1529067999945255],[0.15291059999435674],1267.606310999996,1267.606310999996,0.007442300004186109,0.007442300004186109,0.01786990000982769,0.052617000008467585,0.05955210000684019,0.10120920000190381,0.10814180001034401,1.0039228000096045,1271.0993039000023,1274.863051799999,,,,,,,,,,,,,,,,,,,,,,,,,,,,,12,A,2023-12-08_11h31.34.421,gca_avoidance_task,2022.2.4,144.02497970831448,
positions.xlsx,stimuli.xlsx,stimuli/Social1.png,stimuli/Social2.png,stimuli/Nonsocial1.png,stimuli/Nonsocial2.png,,"(0.7, -0.5)",cs_minus_s,,,,,0,0,0,0,,,,,,,,,2,0,32,7,,,,,,,,,,,,,,,,,,,,,,,,,,,,,,,,,,,,,,,,,,,,,,,,,,,,,,,,,,1275.369909000001,1277.1753832999966,1274.863051799999,1277.1753832999966,1277.1753832999966,1277.1753832999966,0.006787999998778105,0.012928800002555363,150,none,0,,,1282.1821672000078,1282.1821672000078,0.01341359999787528,0.01341359999787528,0.01973270000598859,0.05438950000097975,0.061402899998938665,0.10305210000660736,0.10999389999778941,1.0127056000055745,1285.6750513000006,1289.7652380000072,,,,,,,,,,,,,,,,,,,,,,,,,,,,,12,A,2023-12-08_11h31.34.421,gca_avoidance_task,2022.2.4,144.02497970831448,
positions.xlsx,stimuli.xlsx,stimuli/Social1.png,stimuli/Social2.png,stimuli/Nonsocial1.png,stimuli/Nonsocial2.png,,"(-0.7, -0.5)",cs_plus_ns,,,,,0,0,0,0,,,,,,,,,2,1,33,9,,,,,,,,,,,,,,,,,,,,,,,,,,,,,,,,,,,,,,,,,,,,,,,,,,,,,,,,,,1290.272070799998,1291.452592200003,1289.7652380000072,1291.452592200003,1291.452592200003,1291.452592200003,0.006742500001564622,0.013107500009937212,150,shock,1,[0.15988750000542495],[0.1598909000022104],1291.6192806000035,1291.6192806000035,0.008046200004173443,0.008046200004173443,0.018504799998481758,0.0531984000117518,0.0601401000021724,0.10176470001169946,0.10875410000153352,1.004515900000115,1295.112176900002,1299.1190050000005,,,,,,,,,,,,,,,,,,,,,,,,,,,,,12,A,2023-12-08_11h31.34.421,gca_avoidance_task,2022.2.4,144.02497970831448,
positions.xlsx,stimuli.xlsx,stimuli/Social1.png,stimuli/Social2.png,stimuli/Nonsocial1.png,stimuli/Nonsocial2.png,,"(0.7, 0.5)",cs_minus_ns,,,,,0,0,0,0,,,,,,,,,2,2,34,14,,,,,,,,,,,,,,,,,,,,,,,,,,,,,,,,,,,,,,,,,,,,,,,,,,,,,,,,,,1299.6258932000055,1301.4383495000075,1299.1190050000005,1301.4383495000075,1301.4383495000075,1301.4383495000075,0.007616400005645119,0.013284600005135871,155,reward,1,[0.5002167000056943],[0.5002202000032412],1301.9452141000074,1301.9452141000074,0.00859169999603182,0.00859169999603182,0.018865899997763336,0.05352629999106284,0.060515499993925914,0.10208589999820106,0.10907749999023508,1.0048887999873841,1305.438161099999,1309.340791900002,,,,,,,,,,,,,,,,,,,,,,,,,,,,,12,A,2023-12-08_11h31.34.421,gca_avoidance_task,2022.2.4,144.02497970831448,
positions.xlsx,stimuli.xlsx,stimuli/Social1.png,stimuli/Social2.png,stimuli/Nonsocial1.png,stimuli/Nonsocial2.png,,"(-0.7, -0.5)",cs_minus_ns,,,,,0,0,0,0,,,,,,,,,2,3,35,13,,,,,,,,,,,,,,,,,,,,,,,,,,,,,,,,,,,,,,,,,,,,,,,,,,,,,,,,,,1309.8477111999964,1311.403207299998,1309.340791900002,1311.403207299998,1311.403207299998,1311.403207299998,0.006907000002684072,0.012861099996371195,160,reward,1,[0.47218270000303164],[0.4721865000028629],1311.882406500008,1311.882406500008,0.007891799992648885,0.007891799992648885,0.01843870000448078,0.053067300003021955,0.0600269999995362,0.10164330000407062,0.108587599999737,1.0044472000008682,1315.3752685000072,1319.3542767000035,,,,,,,,,,,,,,,,,,,,,,,,,,,,,12,A,2023-12-08_11h31.34.421,gca_avoidance_task,2022.2.4,144.02497970831448,
positions.xlsx,stimuli.xlsx,stimuli/Social1.png,stimuli/Social2.png,stimuli/Nonsocial1.png,stimuli/Nonsocial2.png,,"(0.7, 0.5)",cs_plus_s,,,,,0,0,0,0,,,,,,,,,2,4,36,2,,,,,,,,,,,,,,,,,,,,,,,,,,,,,,,,,,,,,,,,,,,,,,,,,,,,,,,,,,1319.8612013000093,1321.7361106000026,1319.3542767000035,1321.7361106000026,1321.7361106000026,1321.7361106000026,0.006516800000099465,0.013106600003084168,160,shock,1,[0.8473775000020396],[0.8473814000026323],1322.5902900000074,1322.5902900000074,0.009074799992959015,0.009074799992959015,0.018456999998306856,0.05309000000124797,0.06006560000241734,0.10169630000018515,0.10869729999103583,1.0044526999990921,1326.0832391000004,1330.4441583000007,,,,,,,,,,,,,,,,,,,,,,,,,,,,,12,A,2023-12-08_11h31.34.421,gca_avoidance_task,2022.2.4,144.02497970831448,
positions.xlsx,stimuli.xlsx,stimuli/Social1.png,stimuli/Social2.png,stimuli/Nonsocial1.png,stimuli/Nonsocial2.png,,"(-0.7, 0.5)",cs_plus_s,,,,,0,0,0,0,,,,,,,,,2,5,37,0,,,,,,,,,,,,,,,,,,,,,,,,,,,,,,,,,,,,,,,,,,,,,,,,,,,,,,,,,,1330.9510230000014,1332.194031799998,1330.4441583000007,1332.194031799998,1332.194031799998,1332.194031799998,0.006773200002498925,0.013461599999573082,160,none,0,,,1337.2008317,1337.2008317,0.014917300009983592,0.014917300009983592,0.02029919999768026,0.054926099997828715,0.06188970000948757,0.10356830000819173,0.11050390001037158,1.013275400007842,1340.6937465000083,1344.2978032999963,,,,,,,,,,,,,,,,,,,,,,,,,,,,,12,A,2023-12-08_11h31.34.421,gca_avoidance_task,2022.2.4,144.02497970831448,
positions.xlsx,stimuli.xlsx,stimuli/Social1.png,stimuli/Social2.png,stimuli/Nonsocial1.png,stimuli/Nonsocial2.png,,"(-0.7, -0.5)",cs_minus_s,,,,,0,0,0,0,,,,,,,,,2,6,38,5,,,,,,,,,,,,,,,,,,,,,,,,,,,,,,,,,,,,,,,,,,,,,,,,,,,,,,,,,,1344.8046748000052,1346.7351724000036,1344.2978032999963,1346.7351724000036,1346.7351724000036,1346.7351724000036,0.007376299996394664,0.013096900001983158,165,reward,1,[0.4999616999994032],[0.49996570000075735],1347.242132600004,1347.242132600004,0.008407299988903105,0.008407299988903105,0.01886509999167174,0.05349890000070445,0.06046079999941867,0.10210129999904893,0.10905329999513924,1.004864099988481,1350.7350605000101,1354.6793078000046,,,,,,,,,,,,,,,,,,,,,,,,,,,,,12,A,2023-12-08_11h31.34.421,gca_avoidance_task,2022.2.4,144.02497970831448,
positions.xlsx,stimuli.xlsx,stimuli/Social1.png,stimuli/Social2.png,stimuli/Nonsocial1.png,stimuli/Nonsocial2.png,,"(-0.7, 0.5)",cs_minus_ns,,,,,0,0,0,0,,,,,,,,,2,7,39,12,,,,,,,,,,,,,,,,,,,,,,,,,,,,,,,,,,,,,,,,,,,,,,,,,,,,,,,,,,1355.186183800004,1356.9430909000075,1354.6793078000046,1356.9430909000075,1356.9430909000075,1356.9430909000075,0.006622299988521263,0.013423599986708723,170,reward,1,[0.6536526999989292],[0.6536564999987604],1357.602786500007,1357.602786500007,0.008749200002057478,0.008749200002057478,0.018227699998533353,0.052924200004781596,0.05985980000696145,0.10149590000219177,0.10844320000614971,1.0042318000050727,1361.0957539000083,1365.2969429000077,,,,,,,,,,,,,,,,,,,,,,,,,,,,,12,A,2023-12-08_11h31.34.421,gca_avoidance_task,2022.2.4,144.02497970831448,
positions.xlsx,stimuli.xlsx,stimuli/Social1.png,stimuli/Social2.png,stimuli/Nonsocial1.png,stimuli/Nonsocial2.png,,"(-0.7, -0.5)",cs_plus_s,,,,,0,0,0,0,,,,,,,,,2,8,40,1,,,,,,,,,,,,,,,,,,,,,,,,,,,,,,,,,,,,,,,,,,,,,,,,,,,,,,,,,,1365.8038245000062,1367.6648669999995,1365.2969429000077,1367.6648669999995,1367.6648669999995,1367.6648669999995,0.007247300003655255,0.012995800003409386,170,shock,1,[0.2917135000025155],[0.291717999993125],1367.9634774000006,1367.9634774000006,0.007243499989272095,0.007243499989272095,0.018266300001414493,0.05299349999404512,0.059949399990728125,0.10156109998933971,0.10854649999237154,1.0043206999980612,1371.4564543000015,1375.379890199998,,,,,,,,,,,,,,,,,,,,,,,,,,,,,12,A,2023-12-08_11h31.34.421,gca_avoidance_task,2022.2.4,144.02497970831448,
positions.xlsx,stimuli.xlsx,stimuli/Social1.png,stimuli/Social2.png,stimuli/Nonsocial1.png,stimuli/Nonsocial2.png,,"(-0.7, 0.5)",cs_plus_ns,,,,,0,0,0,0,,,,,,,,,2,9,41,8,,,,,,,,,,,,,,,,,,,,,,,,,,,,,,,,,,,,,,,,,,,,,,,,,,,,,,,,,,1375.8867662999983,1377.5672863000073,1375.379890199998,1377.5672863000073,1377.5672863000073,1377.5672863000073,0.007891600005677901,0.013268900002003647,170,none,0,,,1382.5740334000002,1382.5740334000002,0.014494300005026162,0.014494300005026162,0.02000930000212975,0.05465520000143442,0.06161170000268612,0.10335409999242984,0.1102859999955399,1.0129757999966387,1386.0669445000094,1389.9140343000036,,,,,,,,,,,,,,,,,,,,,,,,,,,,,12,A,2023-12-08_11h31.34.421,gca_avoidance_task,2022.2.4,144.02497970831448,
positions.xlsx,stimuli.xlsx,stimuli/Social1.png,stimuli/Social2.png,stimuli/Nonsocial1.png,stimuli/Nonsocial2.png,,"(-0.7, 0.5)",cs_minus_s,,,,,0,0,0,0,,,,,,,,,2,10,42,4,,,,,,,,,,,,,,,,,,,,,,,,,,,,,,,,,,,,,,,,,,,,,,,,,,,,,,,,,,1390.4209050000063,1392.2541936000052,1389.9140343000036,1392.2541936000052,1392.2541936000052,1392.2541936000052,0.007308000000193715,0.013338599994312972,175,reward,1,[0.507356099988101],[0.5073599999886937],1392.7681299999967,1392.7681299999967,0.008318599997437559,0.008318599997437559,0.018601600007968955,0.05319370000506751,0.060175899998284876,0.10184210000443272,0.1087831000040751,1.0045556999975815,1396.2610012000077,1400.163678900004,,,,,,,,,,,,,,,,,,,,,,,,,,,,,12,A,2023-12-08_11h31.34.421,gca_avoidance_task,2022.2.4,144.02497970831448,
positions.xlsx,stimuli.xlsx,stimuli/Social1.png,stimuli/Social2.png,stimuli/Nonsocial1.png,stimuli/Nonsocial2.png,,"(0.7, 0.5)",cs_plus_ns,,,,,0,0,0,0,,,,,,,,,2,11,43,10,,,,,,,,,,,,,,,,,,,,,,,,,,,,,,,,,,,,,,,,,,,,,,,,,,,,,,,,,,1400.6705156000098,1401.802427600007,1400.163678900004,1401.802427600007,1401.802427600007,1401.802427600007,0.007754100006422959,0.012934900005348027,175,none,0,,,1406.8161032000062,1406.8161032000062,0.014914500003214926,0.014914500003214926,0.026620000004186295,0.054381399997510016,0.06133840000256896,0.10302609999780543,0.1099131000082707,1.0126795999967726,1410.3021229000005,1414.3366583000025,,,,,,,,,,,,,,,,,,,,,,,,,,,,,12,A,2023-12-08_11h31.34.421,gca_avoidance_task,2022.2.4,144.02497970831448,
positions.xlsx,stimuli.xlsx,stimuli/Social1.png,stimuli/Social2.png,stimuli/Nonsocial1.png,stimuli/Nonsocial2.png,,"(0.7, 0.5)",cs_minus_s,,,,,0,0,0,0,,,,,,,,,2,12,44,6,,,,,,,,,,,,,,,,,,,,,,,,,,,,,,,,,,,,,,,,,,,,,,,,,,,,,,,,,,1414.8435567999986,1415.9130235000048,1414.3366583000025,1415.9130235000048,1415.9130235000048,1415.9130235000048,0.006811900006141514,0.013159299996914342,180,reward,1,[0.48631930000556167],[0.49321749999944586],1416.412990500001,1416.412990500001,0.007448999996995553,0.007448999996995553,0.018147599999792874,0.05282540000916924,0.05977490000077523,0.10142380000615958,0.1084471000067424,1.0041597000090405,1419.905896700002,1423.982132300007,,,,,,,,,,,,,,,,,,,,,,,,,,,,,12,A,2023-12-08_11h31.34.421,gca_avoidance_task,2022.2.4,144.02497970831448,
positions.xlsx,stimuli.xlsx,stimuli/Social1.png,stimuli/Social2.png,stimuli/Nonsocial1.png,stimuli/Nonsocial2.png,,"(0.7, -0.5)",cs_minus_ns,,,,,0,0,0,0,,,,,,,,,2,13,45,15,,,,,,,,,,,,,,,,,,,,,,,,,,,,,,,,,,,,,,,,,,,,,,,,,,,,,,,,,,1424.489023400005,1425.5237223000004,1423.982132300007,1425.5237223000004,1425.5237223000004,1425.5237223000004,0.0060856999916723,0.013460000001941808,180,none,0,,,1430.5304617000074,1430.5304617000074,0.01415009998891037,0.01415009998891037,0.02022239999496378,0.05485709999629762,0.06181839999044314,0.10351149999769405,0.1105083000002196,1.0131456999952206,1434.0233816999971,1437.7594031000044,,,,,,,,,,,,,,,,,,,,,,,,,,,,,12,A,2023-12-08_11h31.34.421,gca_avoidance_task,2022.2.4,144.02497970831448,
positions.xlsx,stimuli.xlsx,stimuli/Social1.png,stimuli/Social2.png,stimuli/Nonsocial1.png,stimuli/Nonsocial2.png,,"(0.7, -0.5)",cs_plus_s,,,,,0,0,0,0,,,,,,,,,2,14,46,3,,,,,,,,,,,,,,,,,,,,,,,,,,,,,,,,,,,,,,,,,,,,,,,,,,,,,,,,,,1438.2662485000037,1439.4120781000092,1437.7594031000044,1439.4120781000092,1439.4120781000092,1439.4120781000092,0.006040899999788962,0.013131100000464357,180,none,0,,,1444.4188419999991,1444.4188419999991,0.01341290000709705,0.01341290000709705,0.01986520001082681,0.054564500009291805,0.06152220000512898,0.1031455000047572,0.11010730000270996,1.0128033000073629,1447.9117744999967,1452.1199301000015,,,,,,,,,,,,,,,,,,,,,,,,,,,,,12,A,2023-12-08_11h31.34.421,gca_avoidance_task,2022.2.4,144.02497970831448,
positions.xlsx,stimuli.xlsx,stimuli/Social1.png,stimuli/Social2.png,stimuli/Nonsocial1.png,stimuli/Nonsocial2.png,,"(0.7, -0.5)",cs_plus_ns,,,,,0,0,0,0,,,,,,,,,2,15,47,11,,,,,,,,,,,,,,,,,,,,,,,,,,,,,,,,,,,,,,,,,,,,,,,,,,,,,,,,,,1452.6268221000064,1453.980918000001,1452.1199301000015,1453.980918000001,1453.980918000001,1453.980918000001,0.00625229999423027,0.013319199992110953,180,shock,2,"[4.687815199999022, 4.729352199996356]","[4.694257800001651, 4.729355699993903]",1458.7099022000039,1458.7099022000039,0.007486600006814115,0.007486600006814115,0.01170770000317134,0.0533041000016965,0.0602770999976201,0.10191280000435654,0.10892769999918528,1.0046796999959042,1462.2098245000088,1465.945781100003,,,,,,,,,,,,,,,,,,,,,,,,,,,,,12,A,2023-12-08_11h31.34.421,gca_avoidance_task,2022.2.4,144.02497970831448,
positions.xlsx,stimuli.xlsx,stimuli/Social1.png,stimuli/Social2.png,stimuli/Nonsocial1.png,stimuli/Nonsocial2.png,,"(0.7, 0.5)",cs_plus_ns,,,,,0,0,0,0,,,,,,,,,3,0,48,10,,,,,,,,,,,,,,,,,,,,,,,,,,,,,,,,,,,,,,,,,,,,,,,,,,,,,,,,,,1466.4526555000048,1468.0776473000005,1465.945781100003,1468.0776473000005,1468.0776473000005,1468.0776473000005,0.006330399992293678,0.01313069999741856,180,none,0,,,1473.0843485000078,1473.0843485000078,0.014392899989616126,0.014392899989616126,0.01986259999102913,0.054510299989487976,0.06148429999302607,0.10310969999409281,0.11009439999179449,1.0127918999933172,1476.577309100001,1480.6604996000096,,,,,,,,,,,,,,,,,,,,,,,,,,,,,12,A,2023-12-08_11h31.34.421,gca_avoidance_task,2022.2.4,144.02497970831448,
positions.xlsx,stimuli.xlsx,stimuli/Social1.png,stimuli/Social2.png,stimuli/Nonsocial1.png,stimuli/Nonsocial2.png,,"(-0.7, -0.5)",cs_plus_ns,,,,,0,0,0,0,,,,,,,,,3,1,49,9,,,,,,,,,,,,,,,,,,,,,,,,,,,,,,,,,,,,,,,,,,,,,,,,,,,,,,,,,,1481.1673470000096,1482.6325420000067,1480.6604996000096,1482.6325420000067,1482.6325420000067,1482.6325420000067,0.00639979999687057,0.01302709999436047,180,none,0,,,1487.6393941999995,1487.6393941999995,0.01421979999577161,0.01421979999577161,0.019880499996361323,0.05451229999016505,0.06146989999979269,0.1031241000018781,0.11014309999882244,1.0127494999906048,1491.1322462000098,1495.2918430999998,,,,,,,,,,,,,,,,,,,,,,,,,,,,,12,A,2023-12-08_11h31.34.421,gca_avoidance_task,2022.2.4,144.02497970831448,
positions.xlsx,stimuli.xlsx,stimuli/Social1.png,stimuli/Social2.png,stimuli/Nonsocial1.png,stimuli/Nonsocial2.png,,"(0.7, -0.5)",cs_plus_ns,,,,,0,0,0,0,,,,,,,,,3,2,50,11,,,,,,,,,,,,,,,,,,,,,,,,,,,,,,,,,,,,,,,,,,,,,,,,,,,,,,,,,,1495.7987101000035,1497.368101,1495.2918430999998,1497.368101,1497.368101,1497.368101,0.006643800006713718,0.013017600009334274,180,none,0,,,1502.3748728000064,1502.3748728000064,0.014085100003285334,0.014085100003285334,0.019809000004897825,0.0544862000097055,0.06142759999784175,0.1031312999984948,0.1100289000023622,1.012779299999238,1505.867803400004,1510.020443900008,,,,,,,,,,,,,,,,,,,,,,,,,,,,,12,A,2023-12-08_11h31.34.421,gca_avoidance_task,2022.2.4,144.02497970831448,
positions.xlsx,stimuli.xlsx,stimuli/Social1.png,stimuli/Social2.png,stimuli/Nonsocial1.png,stimuli/Nonsocial2.png,,"(-0.7, 0.5)",cs_plus_s,,,,,0,0,0,0,,,,,,,,,3,3,51,0,,,,,,,,,,,,,,,,,,,,,,,,,,,,,,,,,,,,,,,,,,,,,,,,,,,,,,,,,,1510.527318499997,1512.2911557000043,1510.020443900008,1512.2911557000043,1512.2911557000043,1512.2911557000043,0.005762200002209283,0.013096200011204928,180,shock,0,,,1513.3744237000064,1513.3744237000064,0.007346400001551956,0.007346400001551956,0.01818939999793656,0.05288970000401605,0.05985800000780728,0.10147649999998976,0.10842449999472592,1.0042795000044862,1516.8673419999977,1521.047804700007,,,,,,,,,,,,,,,,,,,,,,,,,,,,,12,A,2023-12-08_11h31.34.421,gca_avoidance_task,2022.2.4,144.02497970831448,
positions.xlsx,stimuli.xlsx,stimuli/Social1.png,stimuli/Social2.png,stimuli/Nonsocial1.png,stimuli/Nonsocial2.png,,"(-0.7, -0.5)",cs_plus_s,,,,,0,0,0,0,,,,,,,,,3,4,52,1,,,,,,,,,,,,,,,,,,,,,,,,,,,,,,,,,,,,,,,,,,,,,,,,,,,,,,,,,,1521.5546518000046,1523.096292800008,1521.047804700007,1523.096292800008,1523.096292800008,1523.096292800008,0.0058425000024726614,0.013401999996858649,180,shock,1,[0.23647599999094382],[0.2364798999915365],1523.3393555000075,1523.3393555000075,0.007435400009853765,0.007435400009853765,0.018596000008983538,0.05331020000448916,0.060207300004549325,0.10189410000748467,0.10881630000949372,1.0046506000071531,1526.8322344000044,1530.4710401000048,,,,,,,,,,,,,,,,,,,,,,,,,,,,,12,A,2023-12-08_11h31.34.421,gca_avoidance_task,2022.2.4,144.02497970831448,
positions.xlsx,stimuli.xlsx,stimuli/Social1.png,stimuli/Social2.png,stimuli/Nonsocial1.png,stimuli/Nonsocial2.png,,"(-0.7, -0.5)",cs_minus_ns,,,,,0,0,0,0,,,,,,,,,3,5,53,13,,,,,,,,,,,,,,,,,,,,,,,,,,,,,,,,,,,,,,,,,,,,,,,,,,,,,,,,,,1530.9778908000008,1532.526449099998,1530.4710401000048,1532.526449099998,1532.526449099998,1532.526449099998,0.006816699999035336,0.01347449999593664,185,reward,1,[0.20183229999383911],[0.2018359999929089],1532.7348052000016,1532.7348052000016,0.008461400007945485,0.008461400007945485,0.018404200003715232,0.05306400000699796,0.06001549999928102,0.10168520000297576,0.1086768000095617,1.004416099996888,1536.227786000003,1540.1442783000093,,,,,,,,,,,,,,,,,,,,,,,,,,,,,12,A,2023-12-08_11h31.34.421,gca_avoidance_task,2022.2.4,144.02497970831448,
positions.xlsx,stimuli.xlsx,stimuli/Social1.png,stimuli/Social2.png,stimuli/Nonsocial1.png,stimuli/Nonsocial2.png,,"(0.7, 0.5)",cs_minus_ns,,,,,0,0,0,0,,,,,,,,,3,6,54,14,,,,,,,,,,,,,,,,,,,,,,,,,,,,,,,,,,,,,,,,,,,,,,,,,,,,,,,,,,1540.651129100006,1542.081620900004,1540.1442783000093,1542.081620900004,1542.081620900004,1542.081620900004,0.006845199997769669,0.013043800005107187,190,reward,1,[0.20843779999995604],[0.20844170000054874],1542.296902400005,1542.296902400005,0.007383399992249906,0.007383399992249906,0.018332299994654022,0.053009600000223145,0.05996440000308212,0.1015828999952646,0.10855479999736417,1.0043412999948487,1545.7898896999977,1550.1021997000062,,,,,,,,,,,,,,,,,,,,,,,,,,,,,12,A,2023-12-08_11h31.34.421,gca_avoidance_task,2022.2.4,144.02497970831448,
positions.xlsx,stimuli.xlsx,stimuli/Social1.png,stimuli/Social2.png,stimuli/Nonsocial1.png,stimuli/Nonsocial2.png,,"(-0.7, -0.5)",cs_minus_s,,,,,0,0,0,0,,,,,,,,,3,7,55,5,,,,,,,,,,,,,,,,,,,,,,,,,,,,,,,,,,,,,,,,,,,,,,,,,,,,,,,,,,1550.6090665000083,1551.7062647999992,1550.1021997000062,1551.7062647999992,1551.7062647999992,1551.7062647999992,0.00622049999947194,0.013365699996938929,195,reward,1,[0.16003519999503624],[0.16003879999334458],1551.8729103000078,1551.8729103000078,0.00725100000272505,0.00725100000272505,0.018669600001885556,0.05334410000068601,0.06029839999973774,0.10195199999725446,0.10890310000104364,1.0046882000024198,1555.3658886000048,1559.671285999997,,,,,,,,,,,,,,,,,,,,,,,,,,,,,12,A,2023-12-08_11h31.34.421,gca_avoidance_task,2022.2.4,144.02497970831448,
positions.xlsx,stimuli.xlsx,stimuli/Social1.png,stimuli/Social2.png,stimuli/Nonsocial1.png,stimuli/Nonsocial2.png,,"(0.7, 0.5)",cs_minus_s,,,,,0,0,0,0,,,,,,,,,3,8,56,6,,,,,,,,,,,,,,,,,,,,,,,,,,,,,,,,,,,,,,,,,,,,,,,,,,,,,,,,,,1560.1781488999986,1561.3725637000025,1559.671285999997,1561.3725637000025,1561.3725637000025,1561.3725637000025,0.006634100005612709,0.013211600002250634,200,reward,1,[0.2780075000046054],[0.2780114000051981],1561.6572516000015,1561.6572516000015,0.007060300005832687,0.007060300005832687,0.018450100003974512,0.05312749999575317,0.060090700004366226,0.10178810000070371,0.10872469999594614,1.004478000002564,1565.1502433999995,1569.1361869999964,,,,,,,,,,,,,,,,,,,,,,,,,,,,,12,A,2023-12-08_11h31.34.421,gca_avoidance_task,2022.2.4,144.02497970831448,
positions.xlsx,stimuli.xlsx,stimuli/Social1.png,stimuli/Social2.png,stimuli/Nonsocial1.png,stimuli/Nonsocial2.png,,"(0.7, -0.5)",cs_minus_s,,,,,0,0,0,0,,,,,,,,,3,9,57,7,,,,,,,,,,,,,,,,,,,,,,,,,,,,,,,,,,,,,,,,,,,,,,,,,,,,,,,,,,1569.6430443999998,1570.872179099999,1569.1361869999964,1570.872179099999,1570.872179099999,1570.872179099999,0.006294000006164424,0.01327510000555776,205,reward,1,[0.29883660000632517],[0.29884030000539497],1571.1777165000094,1571.1777165000094,0.007145199997466989,0.007145199997466989,0.018638800000189804,0.053258999992976896,0.06028109999897424,0.10186109998903703,0.10887929999444168,1.0046521999902325,1574.6706893000082,1579.1288540000096,,,,,,,,,,,,,,,,,,,,,,,,,,,,,12,A,2023-12-08_11h31.34.421,gca_avoidance_task,2022.2.4,144.02497970831448,
positions.xlsx,stimuli.xlsx,stimuli/Social1.png,stimuli/Social2.png,stimuli/Nonsocial1.png,stimuli/Nonsocial2.png,,"(0.7, -0.5)",cs_minus_ns,,,,,0,0,0,0,,,,,,,,,3,10,58,15,,,,,,,,,,,,,,,,,,,,,,,,,,,,,,,,,,,,,,,,,,,,,,,,,,,,,,,,,,1579.6357198000042,1580.8439983999997,1579.1288540000096,1580.8439983999997,1580.8439983999997,1580.8439983999997,0.006964500003959984,0.013170000005629845,210,reward,1,[0.9169158000004245],[0.9169196000002557],1581.7675768000045,1581.7675768000045,0.007699399997363798,0.007699399997363798,0.01810279999335762,0.05277129999012686,0.05974009999772534,0.10140479999245144,0.10840659998939373,1.0041360999894096,1585.2605021000054,1589.3228994000092,,,,,,,,,,,,,,,,,,,,,,,,,,,,,12,A,2023-12-08_11h31.34.421,gca_avoidance_task,2022.2.4,144.02497970831448,
positions.xlsx,stimuli.xlsx,stimuli/Social1.png,stimuli/Social2.png,stimuli/Nonsocial1.png,stimuli/Nonsocial2.png,,"(0.7, 0.5)",cs_plus_s,,,,,0,0,0,0,,,,,,,,,3,11,59,2,,,,,,,,,,,,,,,,,,,,,,,,,,,,,,,,,,,,,,,,,,,,,,,,,,,,,,,,,,1589.8297478000022,1590.8435996000044,1589.3228994000092,1590.8435996000044,1590.8435996000044,1590.8435996000044,0.006046099995728582,0.013064899991150014,210,shock,1,[0.31944669999938924],[0.31945019999693613],1591.1699938000093,1591.1699938000093,0.007530100003350526,0.007530100003350526,0.018807600004947744,0.05344879999756813,0.06036780000431463,0.10200289999193046,0.10902319999877363,1.0048073999932967,1594.6629601000022,1599.072518400004,,,,,,,,,,,,,,,,,,,,,,,,,,,,,12,A,2023-12-08_11h31.34.421,gca_avoidance_task,2022.2.4,144.02497970831448,
positions.xlsx,stimuli.xlsx,stimuli/Social1.png,stimuli/Social2.png,stimuli/Nonsocial1.png,stimuli/Nonsocial2.png,,"(0.7, -0.5)",cs_plus_s,,,,,0,0,0,0,,,,,,,,,3,12,60,3,,,,,,,,,,,,,,,,,,,,,,,,,,,,,,,,,,,,,,,,,,,,,,,,,,,,,,,,,,1599.5794451999973,1600.7876586000057,1599.072518400004,1600.7876586000057,1600.7876586000057,1600.7876586000057,0.006518599999253638,0.013388799998210743,210,shock,1,[0.18798230000538751],[0.1879862000059802],1600.9820936000033,1600.9820936000033,0.007572700007585809,0.007572700007585809,0.018439600011333823,0.053113100002519786,0.06004110000503715,0.101771200002986,0.10869930000626482,1.0045097999973223,1604.4750476000045,1608.6554734000092,,,,,,,,,,,,,,,,,,,,,,,,,,,,,12,A,2023-12-08_11h31.34.421,gca_avoidance_task,2022.2.4,144.02497970831448,
positions.xlsx,stimuli.xlsx,stimuli/Social1.png,stimuli/Social2.png,stimuli/Nonsocial1.png,stimuli/Nonsocial2.png,,"(-0.7, 0.5)",cs_plus_ns,,,,,0,0,0,0,,,,,,,,,3,13,61,8,,,,,,,,,,,,,,,,,,,,,,,,,,,,,,,,,,,,,,,,,,,,,,,,,,,,,,,,,,1609.1623443999997,1610.4747748000082,1608.6554734000092,1610.4747748000082,1610.4747748000082,1610.4747748000082,0.007383000003756024,0.013497399995685555,210,none,0,,,1615.4815237000003,1615.4815237000003,0.01553839999542106,0.01553839999542106,0.020250000001396984,0.05495829999563284,0.06188330000441056,0.10355820000404492,0.11049439999624155,1.0132250000024214,1618.9744990000036,1622.8007620999997,,,,,,,,,,,,,,,,,,,,,,,,,,,,,12,A,2023-12-08_11h31.34.421,gca_avoidance_task,2022.2.4,144.02497970831448,
positions.xlsx,stimuli.xlsx,stimuli/Social1.png,stimuli/Social2.png,stimuli/Nonsocial1.png,stimuli/Nonsocial2.png,,"(-0.7, 0.5)",cs_minus_ns,,,,,0,0,0,0,,,,,,,,,3,14,62,12,,,,,,,,,,,,,,,,,,,,,,,,,,,,,,,,,,,,,,,,,,,,,,,,,,,,,,,,,,1623.3076243999967,1625.120035,1622.8007620999997,1625.120035,1625.120035,1625.120035,0.00753469999472145,0.01318179999361746,215,reward,1,[0.5349874999956228],[0.5419669999973848],1625.6686271000071,1625.6686271000071,0.00918739999178797,0.00918739999178797,0.018614699991303496,0.0533004000026267,0.06025559999397956,0.10187179999775253,0.1088232999900356,1.0046284999989439,1629.1615526999958,1633.2308867999964,,,,,,,,,,,,,,,,,,,,,,,,,,,,,12,A,2023-12-08_11h31.34.421,gca_avoidance_task,2022.2.4,144.02497970831448,
positions.xlsx,stimuli.xlsx,stimuli/Social1.png,stimuli/Social2.png,stimuli/Nonsocial1.png,stimuli/Nonsocial2.png,,"(-0.7, 0.5)",cs_minus_s,,,,,0,0,0,0,,,,,,,,,3,15,63,4,,,,,,,,,,,,,,,,,,,,,,,,,,,,,,,,,,,,,,,,,,,,,,,,,,,,,,,,,,1633.7377754000045,1635.62662000001,1633.2308867999964,1635.62662000001,1635.62662000001,1635.62662000001,0.007253900010255165,0.013233200006652623,220,reward,1,[0.24336020000919234],[0.250101600002381],1635.8835265000089,1635.8835265000089,0.007932000007713214,0.007932000007713214,0.018446700007189065,0.05315870000049472,0.06005620000360068,0.10169880000466947,0.10862959999940358,1.0044043000089005,1639.3764859000075,1643.4110010000004,,,,,,,,,,,,,,,,,,,,,,,,,,,,,12,A,2023-12-08_11h31.34.421,gca_avoidance_task,2022.2.4,144.02497970831448,
positions.xlsx,stimuli.xlsx,stimuli/Social1.png,stimuli/Social2.png,stimuli/Nonsocial1.png,stimuli/Nonsocial2.png,,"(0.7, 0.5)",cs_minus_ns,,,,,0,0,0,0,,,,,,,,,4,0,64,14,,,,,,,,,,,,,,,,,,,,,,,,,,,,,,,,,,,,,,,,,,,,,,,,,,,,,,,,,,1643.9179280000099,1645.278978000002,1643.4110010000004,1645.278978000002,1645.278978000002,1645.278978000002,0.007449800003087148,0.013336799995158799,225,reward,1,[0.24331469999742694],[0.24331859999801964],1645.5289805000066,1645.5289805000066,0.007760099993902259,0.007760099993902259,0.018709399999352172,0.053377799995359965,0.060372299994924106,0.1020258000062313,0.10895759999402799,1.004760299998452,1649.0219486999995,1653.1050855000067,,,,,,,,,,,,,,,,,,,,,,,,,,,,,12,A,2023-12-08_11h31.34.421,gca_avoidance_task,2022.2.4,144.02497970831448,
positions.xlsx,stimuli.xlsx,stimuli/Social1.png,stimuli/Social2.png,stimuli/Nonsocial1.png,stimuli/Nonsocial2.png,,"(0.7, -0.5)",cs_plus_ns,,,,,0,0,0,0,,,,,,,,,4,1,65,11,,,,,,,,,,,,,,,,,,,,,,,,,,,,,,,,,,,,,,,,,,,,,,,,,,,,,,,,,,1653.6119782000023,1654.9521902999986,1653.1050855000067,1654.9521902999986,1654.9521902999986,1654.9521902999986,0.007220100000267848,0.013340600009541959,225,shock,1,[0.22954860000754707],[0.2295522000058554],1655.1883385999972,1655.1883385999972,0.008351899989065714,0.008351899989065714,0.018593000000691973,0.05320860000210814,0.06018549999862444,0.10185629999614321,0.10880449999240227,1.0045419999951264,1658.6812733999977,1662.549173300009,,,,,,,,,,,,,,,,,,,,,,,,,,,,,12,A,2023-12-08_11h31.34.421,gca_avoidance_task,2022.2.4,144.02497970831448,
positions.xlsx,stimuli.xlsx,stimuli/Social1.png,stimuli/Social2.png,stimuli/Nonsocial1.png,stimuli/Nonsocial2.png,,"(-0.7, -0.5)",cs_plus_ns,,,,,0,0,0,0,,,,,,,,,4,2,66,9,,,,,,,,,,,,,,,,,,,,,,,,,,,,,,,,,,,,,,,,,,,,,,,,,,,,,,,,,,1663.0560762000096,1664.7226535000082,1662.549173300009,1664.7226535000082,1664.7226535000082,1664.7226535000082,0.006351199990604073,0.012941499997396022,225,none,0,,,1669.7294368000003,1669.7294368000003,0.015045599997392856,0.015045599997392856,0.01973139999608975,0.054436999998870306,0.061320599997998215,0.10306729999138042,0.11002069999813102,1.0127105999999912,1673.2223781000066,1677.138904899999,,,,,,,,,,,,,,,,,,,,,,,,,,,,,12,A,2023-12-08_11h31.34.421,gca_avoidance_task,2022.2.4,144.02497970831448,
positions.xlsx,stimuli.xlsx,stimuli/Social1.png,stimuli/Social2.png,stimuli/Nonsocial1.png,stimuli/Nonsocial2.png,,"(-0.7, -0.5)",cs_minus_ns,,,,,0,0,0,0,,,,,,,,,4,3,67,13,,,,,,,,,,,,,,,,,,,,,,,,,,,,,,,,,,,,,,,,,,,,,,,,,,,,,,,,,,1677.6457523999998,1679.583183900002,1677.138904899999,1679.583183900002,1679.583183900002,1679.583183900002,0.007052200002362952,0.012933200006955303,230,reward,1,[0.4790878000058001],[0.47909120000258554],1680.124833599999,1680.124833599999,0.007593900008942001,0.007593900008942001,0.0742964000091888,0.0742964000091888,0.08119820000138134,0.10206699999980628,0.10905820000334643,1.0047912000009092,1683.5622089000099,1687.2218435999966,,,,,,,,,,,,,,,,,,,,,,,,,,,,,12,A,2023-12-08_11h31.34.421,gca_avoidance_task,2022.2.4,144.02497970831448,
positions.xlsx,stimuli.xlsx,stimuli/Social1.png,stimuli/Social2.png,stimuli/Nonsocial1.png,stimuli/Nonsocial2.png,,"(-0.7, 0.5)",cs_minus_s,,,,,0,0,0,0,,,,,,,,,4,4,68,4,,,,,,,,,,,,,,,,,,,,,,,,,,,,,,,,,,,,,,,,,,,,,,,,,,,,,,,,,,1687.7287083999981,1689.2911275000079,1687.2218435999966,1689.2911275000079,1689.2911275000079,1689.2911275000079,0.006951500006834976,0.01347370000439696,235,reward,1,[0.576986100000795],[0.5769901000021491],1689.8744454999978,1689.8744454999978,0.007869499997468665,0.007869499997468665,0.01822679999168031,0.05299860000377521,0.059898399995290674,0.10153149999678135,0.10850429999118205,1.0042372000025352,1693.3674303000007,1697.054766900008,,,,,,,,,,,,,,,,,,,,,,,,,,,,,12,A,2023-12-08_11h31.34.421,gca_avoidance_task,2022.2.4,144.02497970831448,
