posFile,stimFile,cs_plus_s,cs_minus_s,cs_plus_ns,cs_minus_ns,stimtype,position,trialtype,trials_threshold.thisRepN,trials_threshold.thisTrialN,trials_threshold.thisN,trials_threshold.thisIndex,blocks.thisRepN,blocks.thisTrialN,blocks.thisN,blocks.thisIndex,ratingtrials1.thisRepN,ratingtrials1.thisTrialN,ratingtrials1.thisN,ratingtrials1.thisIndex,learning_trials.thisRepN,learning_trials.thisTrialN,learning_trials.thisN,learning_trials.thisIndex,trials.thisRepN,trials.thisTrialN,trials.thisN,trials.thisIndex,ratingtrials2.thisRepN,ratingtrials2.thisTrialN,ratingtrials2.thisN,ratingtrials2.thisIndex,testtrials.thisRepN,testtrials.thisTrialN,testtrials.thisN,testtrials.thisIndex,ratingtrials3.thisRepN,ratingtrials3.thisTrialN,ratingtrials3.thisN,ratingtrials3.thisIndex,textStart.started,spaceStart.started,spaceStart.keys,spaceStart.rt,textPainThreshold.started,spacePainThreshold.started,spacePainThreshold.keys,spacePainThreshold.rt,textRateT.started,text_noPainT.started,text_slightPainT.started,text_highPainT.started,sliderPainT.started,keys_PainT.started,sliderPainT.response,sliderPainT.rt,keys_PainT.keys,keys_PainT.rt,fixcrossT.started,portShock1T.started,portShock1T.stopped,portShock2T.started,portShock2T.stopped,portShock3T.started,portShock3T.stopped,fixcrossT.stopped,text_ETCalibration.started,spaceETCalibration.started,spaceETCalibration.keys,spaceETCalibration.rt,textStartExp.started,spaceStartExp.started,spaceStartExp.keys,spaceStartExp.rt,imageRating.started,sliderStim.started,spaceStim.started,sliderStim.response,sliderStim.rt,spaceStim.keys,spaceStim.rt,textStartTask.started,spaceStartTask.started,spaceStartTask.keys,spaceStartTask.rt,blankScreen.started,blankScreen.stopped,fixcross.started,image.started,roi.started,gazeCursor.started,portImage.started,portImage.stopped,score,outcome,roi.numLooks,roi.timesOn,roi.timesOff,imageFeedback.started,gazeCursor_Feedback.started,soundFeedback.started,portShock1.started,portShock1.stopped,portShock2.started,portShock2.stopped,portShock3.started,portShock3.stopped,soundFeedback.stopped,fixcrossE.started,fixcrossE.stopped,textRepeatTask.started,textboxRepeatInstruction.started,textRepeatSpace.started,spaceRepeatTask.started,spaceRepeatTask.keys,spaceRepeatTask.rt,textRate.started,text_noPain.started,text_slightPain.started,text_highPain.started,sliderPain.started,textSpacePain.started,spacePain.started,sliderPain.response,sliderPain.rt,spacePain.keys,spacePain.rt,textTestInstr.started,spaceTestInstr.started,spaceTestInstr.keys,spaceTestInstr.rt,imageTest.started,roiTest.started,portTestImage.started,portTestImage.stopped,roiTest.numLooks,roiTest.timesOn,roiTest.timesOff,participant,group,date,expName,psychopyVersion,frameRate,
,,,,,,,,,,,,,,,,,,,,,,,,,,,,,,,,,,,,,,,,,13.44727280002553,13.44727280002553,space,1.6355954999453388,,,,,,,,,,,,,,,,,,,,,,,,,,,,,,,,,,,,,,,,,,,,,,,,,,,,,,,,,,,,,,,,,,,,,,,,,,,,,,,,,,,,,,,,,,,,,,,20,B,2023-12-11_17h50.54.148,gca_avoidance_task,2022.2.4,143.93770371644501,
,,,,,,,,,,,,,,,,,,,,,,,,,,,,,,,,,,,,,,,,,,,,,15.093006499984767,15.093006499984767,space,1.3653824999928474,,,,,,,,,,,,,,,,,,,,,,,,,,,,,,,,,,,,,,,,,,,,,,,,,,,,,,,,,,,,,,,,,,,,,,,,,,,,,,,,,,,,,,,,,,,20,B,2023-12-11_17h50.54.148,gca_avoidance_task,2022.2.4,143.93770371644501,
,,,,,,,,,0,0,0,0,,,,,,,,,,,,,,,,,,,,,,,,,,,,,,,,,,,,,17.752630400005728,17.752630400005728,17.752630400005728,17.752630400005728,17.752630400005728,17.752630400005728,None,None,s,10.746250999975018,29.099409900023602,0.10366149997571483,0.1106601000064984,0.1522391999606043,0.15926519996719435,0.20091149996733293,0.20785539998905733,29.97436709998874,,,,,,,,,,,,,,,,,,,,,,,,,,,,,,,,,,,,,,,,,,,,,,,,,,,,,,,,,,,,,,,,,,,,,,,,,20,B,2023-12-11_17h50.54.148,gca_avoidance_task,2022.2.4,143.93770371644501,
,,,,,,,,,1,0,1,0,,,,,,,,,,,,,,,,,,,,,,,,,,,,,,,,,,,,,29.97436709998874,29.97436709998874,29.97436709998874,29.97436709998874,29.97436709998874,29.97436709998874,1.0,27.026533800002653,s,31.140887999965344,61.625877399987075,0.09991390001960099,0.10683450003853068,0.15538230002857745,0.16236630000639707,0.20403319998877123,0.21097270003519952,62.382791800017,,,,,,,,,,,,,,,,,,,,,,,,,,,,,,,,,,,,,,,,,,,,,,,,,,,,,,,,,,,,,,,,,,,,,,,,,20,B,2023-12-11_17h50.54.148,gca_avoidance_task,2022.2.4,143.93770371644501,
,,,,,,,,,2,0,2,0,,,,,,,,,,,,,,,,,,,,,,,,,,,,,,,,,,,,,62.382791800017,62.382791800017,62.382791800017,62.382791800017,62.382791800017,62.382791800017,1.0,1.6190196999814361,s,6.252297799976077,69.14642970002024,0.1036405999911949,0.11054999998304993,0.15219699998851866,0.15922929998487234,0.2008652000222355,0.20777739997720346,69.90334259998053,,,,,,,,,,,,,,,,,,,,,,,,,,,,,,,,,,,,,,,,,,,,,,,,,,,,,,,,,,,,,,,,,,,,,,,,,20,B,2023-12-11_17h50.54.148,gca_avoidance_task,2022.2.4,143.93770371644501,
,,,,,,,,,3,0,3,0,,,,,,,,,,,,,,,,,,,,,,,,,,,,,,,,,,,,,69.90334259998053,69.90334259998053,69.90334259998053,69.90334259998053,69.90334259998053,69.90334259998053,1.0,4.8352490000543185,s,9.035590299987234,79.45157059998019,0.10481410002103075,0.111850899993442,0.15341550001176074,0.16037140000844374,0.20209750003414229,0.20904730004258454,,,,,,,,,,,,,,,,,,,,,,,,,,,,,,,,,,,,,,,,,,,,,,,,,,,,,,,,,,,,,,,,,,,,,,,,,,20,B,2023-12-11_17h50.54.148,gca_avoidance_task,2022.2.4,143.93770371644501,
,,,,,,,,,4,0,4,0,,,,,,,,,,,,,,,,,,,,,,,,,,,,,,,,,,,,,80.20848550001392,80.20848550001392,80.20848550001392,80.20848550001392,80.20848550001392,80.20848550001392,2.0,1.3466891999705695,s,4.561847799981479,85.28468679997604,0.10016969998832792,0.10707929998170584,0.15575360000366345,0.16265210002893582,0.20431210001697764,0.2112341999891214,86.04851350001991,,,,,,,,,,,,,,,,,,,,,,,,,,,,,,,,,,,,,,,,,,,,,,,,,,,,,,,,,,,,,,,,,,,,,,,,,20,B,2023-12-11_17h50.54.148,gca_avoidance_task,2022.2.4,143.93770371644501,
,,,,,,,,,5,0,5,0,,,,,,,,,,,,,,,,,,,,,,,,,,,,,,,,,,,,,86.04851350001991,86.04851350001991,86.04851350001991,86.04851350001991,86.04851350001991,86.04851350001991,2.0,2.1469762999913655,s,6.162987399962731,92.83989780000411,0.10269279999192804,0.10963369999080896,0.15131909999763593,0.1582646999740973,0.19993170001544058,0.20691479998640716,93.6037833999726,,,,,,,,,,,,,,,,,,,,,,,,,,,,,,,,,,,,,,,,,,,,,,,,,,,,,,,,,,,,,,,,,,,,,,,,,20,B,2023-12-11_17h50.54.148,gca_avoidance_task,2022.2.4,143.93770371644501,
,,,,,,,,,6,0,6,0,,,,,,,,,,,,,,,,,,,,,,,,,,,,,,,,,,,,,93.6037833999726,93.6037833999726,93.6037833999726,93.6037833999726,93.6037833999726,93.6037833999726,2.0,3.140257500053849,s,6.271849699958693,100.56878869998036,0.10423279996030033,0.11118419998092577,0.15285279997624457,0.1597856999724172,0.20143929996993393,0.20839719998184592,,,,,,,,,,,,,,,,,,,,,,,,,,,,,,,,,,,,,,,,,,,,,,,,,,,,,,,,,,,,,,,,,,,,,,,,,,20,B,2023-12-11_17h50.54.148,gca_avoidance_task,2022.2.4,143.93770371644501,
,,,,,,,,,7,0,7,0,,,,,,,,,,,,,,,,,,,,,,,,,,,,,,,,,,,,,101.38124860002426,101.38124860002426,101.38124860002426,101.38124860002426,101.38124860002426,101.38124860002426,3.0,1.4723139999550767,s,5.9578504000091925,107.99211470002774,0.1030200999812223,0.10997759999008849,0.15164769999682903,0.15860379999503493,0.20029829995473847,0.20724660000996664,108.75593959999969,,,,,,,,,,,,,,,,,,,,,,,,,,,,,,,,,,,,,,,,,,,,,,,,,,,,,,,,,,,,,,,,,,,,,,,,,20,B,2023-12-11_17h50.54.148,gca_avoidance_task,2022.2.4,143.93770371644501,
,,,,,,,,,8,0,8,0,,,,,,,,,,,,,,,,,,,,,,,,,,,,,,,,,,,,,108.75593959999969,108.75593959999969,108.75593959999969,108.75593959999969,108.75593959999969,108.75593959999969,3.0,1.8591017000144348,s,5.151127099990845,114.40849150001304,0.10229189996607602,0.10927149996859953,0.1509082000120543,0.1578958000172861,0.19951740000396967,0.20646710001165047,115.1723618999822,,,,,,,,,,,,,,,,,,,,,,,,,,,,,,,,,,,,,,,,,,,,,,,,,,,,,,,,,,,,,,,,,,,,,,,,,20,B,2023-12-11_17h50.54.148,gca_avoidance_task,2022.2.4,143.93770371644501,
,,,,,,,,,9,0,9,0,,,,,,,,,,,,,,,,,,,,,,,,,,,,,,,,,,,,,115.1723618999822,115.1723618999822,115.1723618999822,115.1723618999822,115.1723618999822,115.1723618999822,3.0,1.791313599969726,s,6.1263248000177555,121.81100109999534,0.10018050001235679,0.10709890001453459,0.15571850002743304,0.16267500002868474,0.20431500003905967,0.21128729998599738,122.56789349997416,,,,,,,,,,,,,,,,,,,,,,,,,,,,,,,,,,,,,,,,,,,,,,,,,,,,,,,,,,,,,,,,,,,,,,,,,20,B,2023-12-11_17h50.54.148,gca_avoidance_task,2022.2.4,143.93770371644501,
,,,,,,,,,10,0,10,0,,,,,,,,,,,,,,,,,,,,,,,,,,,,,,,,,,,,,122.56789349997416,122.56789349997416,122.56789349997416,122.56789349997416,122.56789349997416,122.56789349997416,3.0,1.8143632000428624,s,5.562466699979268,128.67183210002258,0.10263019998092204,0.10957229998894036,0.151204299996607,0.1582393999560736,0.19982509996043518,0.20678269997006282,129.5537108000135,,,,,,,,,,,,,,,,,,,,,,,,,,,,,,,,,,,,,,,,,,,,,,,,,,,,,,,,,,,,,,,,,,,,,,,,,20,B,2023-12-11_17h50.54.148,gca_avoidance_task,2022.2.4,143.93770371644501,
,,,,,,,,,11,0,11,0,,,,,,,,,,,,,,,,,,,,,,,,,,,,,,,,,,,,,129.5537108000135,129.5537108000135,129.5537108000135,129.5537108000135,129.5537108000135,129.5537108000135,3.0,1.9467005000333302,s,5.144922300009057,135.2132477000123,0.09902829997008666,0.10585379996336997,0.15443719999166206,0.16140049998648465,0.2030570999486372,0.2100675999536179,,,,,,,,,,,,,,,,,,,,,,,,,,,,,,,,,,,,,,,,,,,,,,,,,,,,,,,,,,,,,,,,,,,,,,,,,,20,B,2023-12-11_17h50.54.148,gca_avoidance_task,2022.2.4,143.93770371644501,
,,,,,,,,,12,0,12,0,,,,,,,,,,,,,,,,,,,,,,,,,,,,,,,,,,,,,136.01181669998914,136.01181669998914,136.01181669998914,136.01181669998914,136.01181669998914,136.01181669998914,3.0,1.7348632999928668,s,6.335777000000235,142.92126809997717,0.09934790001716465,0.10625499999150634,0.1548287000041455,0.16180400003213435,0.20343880000291392,0.21046080003725365,143.68510539998533,,,,,,,,,,,,,,,,,,,,,,,,,,,,,,,,,,,,,,,,,,,,,,,,,,,,,,,,,,,,,,,,,,,,,,,,,20,B,2023-12-11_17h50.54.148,gca_avoidance_task,2022.2.4,143.93770371644501,
,,,,,,,,,13,0,13,0,,,,,,,,,,,,,,,,,,,,,,,,,,,,,,,,,,,,,143.68510539998533,143.68510539998533,143.68510539998533,143.68510539998533,143.68510539998533,143.68510539998533,3.0,1.8545320000266656,s,5.549414600012824,149.7473936000024,0.09957040002336726,0.10649169998941943,0.15513740002643317,0.1620420000399463,0.2036761000053957,0.21069710003212094,150.52510690002237,,,,,,,,,,,,,,,,,,,,,,,,,,,,,,,,,,,,,,,,,,,,,,,,,,,,,,,,,,,,,,,,,,,,,,,,,20,B,2023-12-11_17h50.54.148,gca_avoidance_task,2022.2.4,143.93770371644501,
,,,,,,,,,14,0,14,0,,,,,,,,,,,,,,,,,,,,,,,,,,,,,,,,,,,,,150.52510690002237,150.52510690002237,150.52510690002237,150.52510690002237,150.52510690002237,150.52510690002237,3.0,2.7101336999912746,s,6.5345192000386305,157.56651550001698,0.10583999997470528,0.11280350002925843,0.1544387000030838,0.16135720000602305,0.20300909999059513,0.20996830001240596,,,,,,,,,,,,,,,,,,,,,,,,,,,,,,,,,,,,,,,,,,,,,,,,,,,,,,,,,,,,,,,,,,,,,,,,,,20,B,2023-12-11_17h50.54.148,gca_avoidance_task,2022.2.4,143.93770371644501,
,,,,,,,,,15,0,15,0,,,,,,,,,,,,,,,,,,,,,,,,,,,,,,,,,,,,,158.32342799997423,158.32342799997423,158.32342799997423,158.32342799997423,158.32342799997423,158.32342799997423,4.0,1.5234394999570213,s,4.920179599954281,163.74681470001815,0.10049049998633564,0.10742190002929419,0.14908669999567792,0.15600499999709427,0.2046000999980606,0.21157849999144673,164.50372919999063,,,,,,,,,,,,,,,,,,,,,,,,,,,,,,,,,,,,,,,,,,,,,,,,,,,,,,,,,,,,,,,,,,,,,,,,,20,B,2023-12-11_17h50.54.148,gca_avoidance_task,2022.2.4,143.93770371644501,
,,,,,,,,,16,0,16,0,,,,,,,,,,,,,,,,,,,,,,,,,,,,,,,,,,,,,164.50372919999063,164.50372919999063,164.50372919999063,164.50372919999063,164.50372919999063,164.50372919999063,4.0,1.9748217999585904,s,6.891322700015735,171.89926089998335,0.10379269998520613,0.11074899998493493,0.15240489999996498,0.1593573999707587,0.20102370000677183,0.2079663000185974,172.66314369998872,,,,,,,,,,,,,,,,,,,,,,,,,,,,,,,,,,,,,,,,,,,,,,,,,,,,,,,,,,,,,,,,,,,,,,,,,20,B,2023-12-11_17h50.54.148,gca_avoidance_task,2022.2.4,143.93770371644501,
,,,,,,,,,17,0,17,0,,,,,,,,,,,,,,,,,,,,,,,,,,,,,,,,,,,,,172.66314369998872,172.66314369998872,172.66314369998872,172.66314369998872,172.66314369998872,172.66314369998872,4.0,1.8336199999903329,s,6.003461899992544,179.18372680002358,0.10577470000134781,0.11271200003102422,0.15436300000874326,0.16134059999603778,0.2029770000372082,0.20992990001104772,,,,,,,,,,,,,,,,,,,,,,,,,,,,,,,,,,,,,,,,,,,,,,,,,,,,,,,,,,,,,,,,,,,,,,,,,,20,B,2023-12-11_17h50.54.148,gca_avoidance_task,2022.2.4,143.93770371644501,
,,,,,,,,,18,0,18,0,,,,,,,,,,,,,,,,,,,,,,,,,,,,,,,,,,,,,179.94757979997667,179.94757979997667,179.94757979997667,179.94757979997667,179.94757979997667,179.94757979997667,4.0,0.8319573000189848,s,5.184305399947334,185.64875639998354,0.10323250002693385,0.11018410004908219,0.1518210000358522,0.15879110002424568,0.20045000000391155,0.20737850002478808,186.40565949998563,,,,,,,,,,,,,,,,,,,,,,,,,,,,,,,,,,,,,,,,,,,,,,,,,,,,,,,,,,,,,,,,,,,,,,,,,20,B,2023-12-11_17h50.54.148,gca_avoidance_task,2022.2.4,143.93770371644501,
,,,,,,,,,19,0,19,0,,,,,,,,,,,,,,,,,,,,,,,,,,,,,,,,,,,,,186.40565949998563,186.40565949998563,186.40565949998563,186.40565949998563,186.40565949998563,186.40565949998563,4.0,0.7457077999715693,s,4.88567950000288,191.81514429999515,0.10064880002755672,0.10760819999268278,0.1492438000277616,0.15620880003552884,0.2048182000289671,0.2117646000115201,192.5720751999761,,,,,,,,,,,,,,,,,,,,,,,,,,,,,,,,,,,,,,,,,,,,,,,,,,,,,,,,,,,,,,,,,,,,,,,,,20,B,2023-12-11_17h50.54.148,gca_avoidance_task,2022.2.4,143.93770371644501,
,,,,,,,,,20,0,20,0,,,,,,,,,,,,,,,,,,,,,,,,,,,,,,,,,,,,,192.5720751999761,192.5720751999761,192.5720751999761,192.5720751999761,192.5720751999761,192.5720751999761,5.0,2.0457984000095166,s,6.127806400007103,199.3634577000048,0.10095519997412339,0.10791269998298958,0.14955979998921975,0.15654260001610965,0.20511529996292666,0.21207730000605807,200.14815710001858,,,,,,,,,,,,,,,,,,,,,,,,,,,,,,,,,,,,,,,,,,,,,,,,,,,,,,,,,,,,,,,,,,,,,,,,,20,B,2023-12-11_17h50.54.148,gca_avoidance_task,2022.2.4,143.93770371644501,
,,,,,,,,,21,0,21,0,,,,,,,,,,,,,,,,,,,,,,,,,,,,,,,,,,,,,200.14815710001858,200.14815710001858,200.14815710001858,200.14815710001858,200.14815710001858,200.14815710001858,6.0,4.541611400025431,s,9.342598400020506,209.99496109999018,0.09913879999658093,0.10610850004013628,0.15477299998747185,0.16172800003550947,0.20332660002168268,0.21029830002225935,210.82138370000757,,,,,,,,,,,,,,,,,,,,,,,,,,,,,,,,,,,,,,,,,,,,,,,,,,,,,,,,,,,,,,,,,,,,,,,,,20,B,2023-12-11_17h50.54.148,gca_avoidance_task,2022.2.4,143.93770371644501,
,,,,,,,,,22,0,22,0,,,,,,,,,,,,,,,,,,,,,,,,,,,,,,,,,,,,,210.82138370000757,210.82138370000757,210.82138370000757,210.82138370000757,210.82138370000757,210.82138370000757,6.0,2.130039500014391,s,6.421161300037056,217.75159900001017,0.1030822999891825,0.11003330000676215,0.15169699996476993,0.15866839996306226,0.20031200000084937,0.20728069997858256,218.51544639997883,,,,,,,,,,,,,,,,,,,,,,,,,,,,,,,,,,,,,,,,,,,,,,,,,,,,,,,,,,,,,,,,,,,,,,,,,20,B,2023-12-11_17h50.54.148,gca_avoidance_task,2022.2.4,143.93770371644501,
,,,,,,,,,23,0,23,0,,,,,,,,,,,,,,,,,,,,,,,,,,,,,,,,,,,,,218.51544639997883,218.51544639997883,218.51544639997883,218.51544639997883,218.51544639997883,218.51544639997883,6.0,0.9400860999594443,s,20.55153140000766,239.5840717999963,0.10574589995667338,0.11269779998110607,0.15433329995721579,0.16127809998579323,0.20292309997603297,0.20989150000968948,,,,,,,,,,,,,,,,,,,,,,,,,,,,,,,,,,,,,,,,,,,,,,,,,,,,,,,,,,,,,,,,,,,,,,,,,,20,B,2023-12-11_17h50.54.148,gca_avoidance_task,2022.2.4,143.93770371644501,
,,,,,,,,,24,0,24,0,,,,,,,,,,,,,,,,,,,,,,,,,,,,,,,,,,,,,240.34797569998773,240.34797569998773,240.34797569998773,240.34797569998773,240.34797569998773,240.34797569998773,7.0,1.4384479000000283,s,7.023027299961541,247.88234120002016,0.1058981999522075,0.11286809999728575,0.15452439995715395,0.16150839999318123,0.20313489995896816,0.2100751999532804,248.68787770002382,,,,,,,,,,,,,,,,,,,,,,,,,,,,,,,,,,,,,,,,,,,,,,,,,,,,,,,,,,,,,,,,,,,,,,,,,20,B,2023-12-11_17h50.54.148,gca_avoidance_task,2022.2.4,143.93770371644501,
,,,,,,,,,25,0,25,0,,,,,,,,,,,,,,,,,,,,,,,,,,,,,,,,,,,,,248.68787770002382,248.68787770002382,248.68787770002382,248.68787770002382,248.68787770002382,248.68787770002382,6.0,1.3641074000042863,s,5.610938299971167,254.86819750000723,0.10144659999059513,0.1083690999657847,0.15002000000094995,0.15697249997174367,0.20560340001247823,0.21253079996677116,255.65987849998055,,,,,,,,,,,,,,,,,,,,,,,,,,,,,,,,,,,,,,,,,,,,,,,,,,,,,,,,,,,,,,,,,,,,,,,,,20,B,2023-12-11_17h50.54.148,gca_avoidance_task,2022.2.4,143.93770371644501,
,,,,,,,,,26,0,26,0,,,,,,,,,,,,,,,,,,,,,,,,,,,,,,,,,,,,,255.65987849998055,255.65987849998055,255.65987849998055,255.65987849998055,255.65987849998055,255.65987849998055,6.0,1.0992601999896578,s,5.903237399994396,262.090100899979,0.10389059997396544,0.11082499998155981,0.15254809998441488,0.15948849997948855,0.2011695000110194,0.2080450999783352,262.84704239998246,,,,,,,,,,,,,,,,,,,,,,,,,,,,,,,,,,,,,,,,,,,,,,,,,,,,,,,,,,,,,,,,,,,,,,,,,20,B,2023-12-11_17h50.54.148,gca_avoidance_task,2022.2.4,143.93770371644501,
,,,,,,,,,27,0,27,0,,,,,,,,,,,,,,,,,,,,,,,,,,,,,,,,,,,,,262.84704239998246,262.84704239998246,262.84704239998246,262.84704239998246,262.84704239998246,262.84704239998246,5.0,0.8865181999863125,s,9.075750500021968,272.4369217000203,0.10417120001511648,0.1111566000035964,0.15279000002192333,0.1597796999849379,0.20135940000182018,0.20835380000062287,273.2008142999839,,,,,,,,,,,,,,,,,,,,,,,,,,,,,,,,,,,,,,,,,,,,,,,,,,,,,,,,,,,,,,,,,,,,,,,,,20,B,2023-12-11_17h50.54.148,gca_avoidance_task,2022.2.4,143.93770371644501,
,,,,,,,,,28,0,28,0,,,,,,,,,,,,,,,,,,,,,,,,,,,,,,,,,,,,,273.2008142999839,273.2008142999839,273.2008142999839,273.2008142999839,273.2008142999839,273.2008142999839,5.0,1.1088494000141509,s,5.442171900009271,279.34643520001555,0.10428349999710917,0.11119160003727302,0.1528423000127077,0.15979740000329912,0.20153279998339713,0.20840960001805797,,,,,,,,,,,,,,,,,,,,,,,,,,,,,,,,,,,,,,,,,,,,,,,,,,,,,,,,,,,,,,,,,,,,,,,,,,20,B,2023-12-11_17h50.54.148,gca_avoidance_task,2022.2.4,143.93770371644501,
,,,,,,,,,29,0,29,0,,,,,,,,,,,,,,,,,,,,,,,,,,,,,,,,,,,,,280.16578879998997,280.16578879998997,280.16578879998997,280.16578879998997,280.16578879998997,280.16578879998997,4.0,2.305713400011882,s,5.845071399991866,286.6725030000089,0.10531449998961762,0.11226939997868612,0.15392859996063635,0.16085679997922853,0.2025061000022106,0.20946949999779463,,,,,,,,,,,,,,,,,,,,,,,,,,,,,,,,,,,,,,,,,,,,,,,,,,,,,,,,,,,,,,,,,,,,,,,,,,20,B,2023-12-11_17h50.54.148,gca_avoidance_task,2022.2.4,143.93770371644501,
,,,,,,,,,30,0,30,0,,,,,,,,,,,,,,,,,,,,,,,,,,,,,,,,,,,,,287.4363248000154,287.4363248000154,287.4363248000154,287.4363248000154,287.4363248000154,287.4363248000154,5.0,1.9595616000005975,s,5.702735600003507,293.6791789000272,0.10345179995056242,0.11038859997643158,0.15206920000491664,0.15905089996522292,0.20071040000766516,0.20766899996669963,294.4777335000108,,,,,,,,,,,,,,,,,,,,,,,,,,,,,,,,,,,,,,,,,,,,,,,,,,,,,,,,,,,,,,,,,,,,,,,,,20,B,2023-12-11_17h50.54.148,gca_avoidance_task,2022.2.4,143.93770371644501,
,,,,,,,,,31,0,31,0,,,,,,,,,,,,,,,,,,,,,,,,,,,,,,,,,,,,,294.4777335000108,294.4777335000108,294.4777335000108,294.4777335000108,294.4777335000108,294.4777335000108,5.0,3.542485299985856,s,7.5579690000158735,302.54683970002225,0.10416760004591197,0.11117920000106096,0.15274550003232434,0.15972049999982119,0.2013814999954775,0.2083443000447005,303.31069239997305,,,,,,,,,,,,,,,,,,,,,,,,,,,,,,,,,,,,,,,,,,,,,,,,,,,,,,,,,,,,,,,,,,,,,,,,,20,B,2023-12-11_17h50.54.148,gca_avoidance_task,2022.2.4,143.93770371644501,
,,,,,,,,,32,0,32,0,,,,,,,,,,,,,,,,,,,,,,,,,,,,,,,,,,,,,303.31069239997305,303.31069239997305,303.31069239997305,303.31069239997305,303.31069239997305,303.31069239997305,6.0,0.8035119000123814,s,5.140223899972625,308.96325889998116,0.10391469998285174,0.11091039999155328,0.15251829999033362,0.1594901999924332,0.201143599988427,0.2080835999804549,309.72711969999364,,,,,,,,,,,,,,,,,,,,,,,,,,,,,,,,,,,,,,,,,,,,,,,,,,,,,,,,,,,,,,,,,,,,,,,,,20,B,2023-12-11_17h50.54.148,gca_avoidance_task,2022.2.4,143.93770371644501,
,,,,,,,,,33,0,33,0,,,,,,,,,,,,,,,,,,,,,,,,,,,,,,,,,,,,,309.72711969999364,309.72711969999364,309.72711969999364,309.72711969999364,309.72711969999364,309.72711969999364,6.0,0.6191722999792546,s,3.972047900024336,314.2200096999877,0.10079820000100881,0.10776400001486763,0.1494043999700807,0.15636959997937083,0.20497869997052476,0.21194299997296184,314.9838495000149,,,,,,,,,,,,,,,,,,,,,,,,,,,,,,,,,,,,,,,,,,,,,,,,,,,,,,,,,,,,,,,,,,,,,,,,,20,B,2023-12-11_17h50.54.148,gca_avoidance_task,2022.2.4,143.93770371644501,
,,,,,,,,,34,0,34,0,,,,,,,,,,,,,,,,,,,,,,,,,,,,,,,,,,,,,314.9838495000149,314.9838495000149,314.9838495000149,314.9838495000149,314.9838495000149,314.9838495000149,7.0,1.139763499959372,s,5.842836099967826,321.33776660001604,0.1009282999439165,0.10791579994838685,0.14955559995723888,0.1564842999796383,0.20506389997899532,0.21200859994860366,322.0946763000102,,,,,,,,,,,,,,,,,,,,,,,,,,,,,,,,,,,,,,,,,,,,,,,,,,,,,,,,,,,,,,,,,,,,,,,,,20,B,2023-12-11_17h50.54.148,gca_avoidance_task,2022.2.4,143.93770371644501,
,,,,,,,,,35,0,35,0,,,,,,,,,,,,,,,,,,,,,,,,,,,,,,,,,,,,,322.0946763000102,322.0946763000102,322.0946763000102,322.0946763000102,322.0946763000102,322.0946763000102,7.0,1.3370424000313506,s,6.276236199948471,328.87911570002325,0.10594729997683316,0.11286589998053387,0.1545625000144355,0.1615186000126414,0.20317019999492913,0.21008799999253824,,,,,,,,,,,,,,,,,,,,,,,,,,,,,,,,,,,,,,,,,,,,,,,,,,,,,,,,,,,,,,,,,,,,,,,,,,20,B,2023-12-11_17h50.54.148,gca_avoidance_task,2022.2.4,143.93770371644501,
,,,,,,,,,36,0,36,0,,,,,,,,,,,,,,,,,,,,,,,,,,,,,,,,,,,,,329.64299199997913,329.64299199997913,329.64299199997913,329.64299199997913,329.64299199997913,329.64299199997913,6.0,2.066582400002517,g,37.408075999992434,367.55814959999407,,,,,,,,,,,,,,,,,,,,,,,,,,,,,,,,,,,,,,,,,,,,,,,,,,,,,,,,,,,,,,,,,,,,,,,,,,,,,,,,20,B,2023-12-11_17h50.54.148,gca_avoidance_task,2022.2.4,143.93770371644501,
,,,,,,,,,,,,,,,,,,,,,,,,,,,,,,,,,,,,,,,,,,,,,,,,,,,,,,,,,,,,,,,,,,,367.55814959999407,367.55814959999407,space,2.3571904999553226,,,,,,,,,,,,,,,,,,,,,,,,,,,,,,,,,,,,,,,,,,,,,,,,,,,,,,,,,,,,,,,,,,,,,20,B,2023-12-11_17h50.54.148,gca_avoidance_task,2022.2.4,143.93770371644501,
positions.xlsx,stimuli.xlsx,stimuli/Social2.png,stimuli/Social1.png,stimuli/Nonsocial1.png,stimuli/Nonsocial2.png,cs_minus_ns,,,,,,,0,0,0,0,0,0,0,3,,,,,,,,,,,,,,,,,,,,,,,,,,,,,,,,,,,,,,,,,,,,,,,,,,,504.56103829998756,504.56103829998756,space,13.658560800016858,518.2674770000158,518.2674770000158,528.4823283000151,5.0,10.209475100040436,space,1.8652159000048414,,,,,,,,,,,,,,,,,,,,,,,,,,,,,,,,,,,,,,,,,,,,,,,,,,,,,,,,,,20,B,2023-12-11_17h50.54.148,gca_avoidance_task,2022.2.4,143.93770371644501,
positions.xlsx,stimuli.xlsx,stimuli/Social2.png,stimuli/Social1.png,stimuli/Nonsocial1.png,stimuli/Nonsocial2.png,cs_plus_ns,,,,,,,0,0,0,0,0,1,1,1,,,,,,,,,,,,,,,,,,,,,,,,,,,,,,,,,,,,,,,,,,,,,,,,,,,,,,,530.3781091999845,530.3781091999845,534.4335003999877,5.0,4.041916000016499,space,1.2498224999872036,,,,,,,,,,,,,,,,,,,,,,,,,,,,,,,,,,,,,,,,,,,,,,,,,,,,,,,,,,20,B,2023-12-11_17h50.54.148,gca_avoidance_task,2022.2.4,143.93770371644501,
positions.xlsx,stimuli.xlsx,stimuli/Social2.png,stimuli/Social1.png,stimuli/Nonsocial1.png,stimuli/Nonsocial2.png,cs_plus_s,,,,,,,0,0,0,0,0,2,2,0,,,,,,,,,,,,,,,,,,,,,,,,,,,,,,,,,,,,,,,,,,,,,,,,,,,,,,,535.718191699998,535.718191699998,538.4680484000128,5.0,2.7437638000119478,space,0.9913083999999799,,,,,,,,,,,,,,,,,,,,,,,,,,,,,,,,,,,,,,,,,,,,,,,,,,,,,,,,,,20,B,2023-12-11_17h50.54.148,gca_avoidance_task,2022.2.4,143.93770371644501,
positions.xlsx,stimuli.xlsx,stimuli/Social2.png,stimuli/Social1.png,stimuli/Nonsocial1.png,stimuli/Nonsocial2.png,cs_minus_s,,,,,,,0,0,0,0,0,3,3,2,,,,,,,,,,,,,,,,,,,,,,,,,,,,,,,,,,,,,,,,,,,,,,,,,,,,,,,539.4888799000182,539.4888799000182,542.058203499997,5.0,2.556932100036647,space,1.0811212999979034,,,,,,,,,,,,,,,,,,,,,,,,,,,,,,,,,,,,,,,,,,,,,,,,,,,,,,,,,,20,B,2023-12-11_17h50.54.148,gca_avoidance_task,2022.2.4,143.93770371644501,
positions.xlsx,stimuli.xlsx,stimuli/Social2.png,stimuli/Social1.png,stimuli/Nonsocial1.png,stimuli/Nonsocial2.png,,"(-0.7, 0.5)",cs_minus_s,,,,,0,0,0,0,,,,,0,0,0,4,,,,,,,,,,,,,,,,,,,,,,,,,,,,,,,,,,,,,,,,,,,,,,,,,,,,,,,,,,543.1484561000252,543.1484561000252,space,13.063414000032935,558.4186127000139,559.7102576000034,557.9187229999807,559.7102576000034,559.7102576000034,559.7102576000034,0.014639200002420694,0.020056899986229837,5,reward,1,[0.45158240001183003],[0.451586099981796],560.1686035000021,560.1686035000021,0.015272799995727837,0.015272799995727837,0.02517819998320192,0.0528504999820143,0.05980909999925643,0.10149730002740398,0.10848890000488609,1.0111645000288263,563.6545919000055,567.3141682000132,,,,,,,,,,,,,,,,,,,,,,,,,,,,,20,B,2023-12-11_17h50.54.148,gca_avoidance_task,2022.2.4,143.93770371644501,
positions.xlsx,stimuli.xlsx,stimuli/Social2.png,stimuli/Social1.png,stimuli/Nonsocial1.png,stimuli/Nonsocial2.png,,"(0.7, 0.5)",cs_minus_s,,,,,0,0,0,0,,,,,0,1,1,6,,,,,,,,,,,,,,,,,,,,,,,,,,,,,,,,,,,,,,,,,,,,,,,,,,,,,,,,,,,,,,567.8210446999874,569.7931933000218,567.3141682000132,569.7931933000218,569.7931933000218,569.7931933000218,0.006306600000243634,0.013150100014172494,10,reward,1,[0.20843290002085268],[0.20843679999234155],570.0085293999873,570.0085293999873,0.007353099994361401,0.007353099994361401,0.01893620000919327,0.05352030001813546,0.060491800017189234,0.1021277999971062,0.10907780000707135,1.004872899968177,573.5013699000119,577.4943214000086,,,,,,,,,,,,,,,,,,,,,,,,,,,,,20,B,2023-12-11_17h50.54.148,gca_avoidance_task,2022.2.4,143.93770371644501,
positions.xlsx,stimuli.xlsx,stimuli/Social2.png,stimuli/Social1.png,stimuli/Nonsocial1.png,stimuli/Nonsocial2.png,,"(-0.7, -0.5)",cs_plus_s,,,,,0,0,0,0,,,,,0,2,2,1,,,,,,,,,,,,,,,,,,,,,,,,,,,,,,,,,,,,,,,,,,,,,,,,,,,,,,,,,,,,,,578.0012432999793,579.1261690999963,577.4943214000086,579.1261690999963,579.1261690999963,579.1261690999963,0.006673399999272078,0.013166300021111965,10,shock,1,[0.458443800045643],[0.4584476000163704],579.59144009999,579.59144009999,0.007285200001206249,0.007285200001206249,0.018387500022072345,0.05313830001978204,0.06009070004802197,0.10172940004849806,0.10866030002944171,1.0044001000351273,583.08441760001,587.2647414000239,,,,,,,,,,,,,,,,,,,,,,,,,,,,,20,B,2023-12-11_17h50.54.148,gca_avoidance_task,2022.2.4,143.93770371644501,
positions.xlsx,stimuli.xlsx,stimuli/Social2.png,stimuli/Social1.png,stimuli/Nonsocial1.png,stimuli/Nonsocial2.png,,"(-0.7, 0.5)",cs_minus_ns,,,,,0,0,0,0,,,,,0,3,3,12,,,,,,,,,,,,,,,,,,,,,,,,,,,,,,,,,,,,,,,,,,,,,,,,,,,,,,,,,,,,,,587.7716492000036,589.7299109000014,587.2647414000239,589.7299109000014,589.7299109000014,589.7299109000014,0.007201600004918873,0.012869699974544346,15,reward,1,[0.576157699979376],[0.576161700009834],590.313305800024,590.313305800024,0.007093299995176494,0.007093299995176494,0.018780399987008423,0.05335399997420609,0.06032349995803088,0.10196739999810234,0.10896419995697215,1.004763799952343,593.80615020002,597.778258699982,,,,,,,,,,,,,,,,,,,,,,,,,,,,,20,B,2023-12-11_17h50.54.148,gca_avoidance_task,2022.2.4,143.93770371644501,
positions.xlsx,stimuli.xlsx,stimuli/Social2.png,stimuli/Social1.png,stimuli/Nonsocial1.png,stimuli/Nonsocial2.png,,"(-0.7, 0.5)",cs_plus_ns,,,,,0,0,0,0,,,,,0,4,4,8,,,,,,,,,,,,,,,,,,,,,,,,,,,,,,,,,,,,,,,,,,,,,,,,,,,,,,,,,,,,,,598.2851261000033,600.2781099000131,597.778258699982,600.2781099000131,600.2781099000131,600.2781099000131,0.007293400005437434,0.013440400012768805,15,shock,1,[0.5420154000166804],[0.5420190999866463],600.8267022999935,600.8267022999935,0.0077476000296883285,0.0077476000296883285,0.018795199983287603,0.053445100027602166,0.06040660000871867,0.10209350002696738,0.10903839999809861,1.0048291999846697,604.3197088000015,608.2153680999763,,,,,,,,,,,,,,,,,,,,,,,,,,,,,20,B,2023-12-11_17h50.54.148,gca_avoidance_task,2022.2.4,143.93770371644501,
positions.xlsx,stimuli.xlsx,stimuli/Social2.png,stimuli/Social1.png,stimuli/Nonsocial1.png,stimuli/Nonsocial2.png,,"(-0.7, 0.5)",cs_plus_s,,,,,0,0,0,0,,,,,0,5,5,0,,,,,,,,,,,,,,,,,,,,,,,,,,,,,,,,,,,,,,,,,,,,,,,,,,,,,,,,,,,,,,608.7222177999793,610.0763267999864,608.2153680999763,610.0763267999864,610.0763267999864,610.0763267999864,0.005861699988599867,0.013198999979067594,15,none,0,,,615.0831037000171,615.0831037000171,0.013054199982434511,0.013054199982434511,0.019965299987234175,0.05462820001412183,0.06158899998990819,0.10327999998116866,0.11025059997336939,1.012931099976413,618.5760205999832,622.2911324999877,,,,,,,,,,,,,,,,,,,,,,,,,,,,,20,B,2023-12-11_17h50.54.148,gca_avoidance_task,2022.2.4,143.93770371644501,
positions.xlsx,stimuli.xlsx,stimuli/Social2.png,stimuli/Social1.png,stimuli/Nonsocial1.png,stimuli/Nonsocial2.png,,"(-0.7, -0.5)",cs_minus_s,,,,,0,0,0,0,,,,,0,6,6,5,,,,,,,,,,,,,,,,,,,,,,,,,,,,,,,,,,,,,,,,,,,,,,,,,,,,,,,,,,,,,,622.7980439999956,624.15214869997,622.2911324999877,624.15214869997,624.15214869997,624.15214869997,0.006272199971135706,0.01320109999505803,20,reward,1,[0.5211872999789193],[0.5211912000086159],624.6799193000188,624.6799193000188,0.0071359999710693955,0.0071359999710693955,0.01876020000781864,0.05344330001389608,0.06042260001413524,0.10209880000911653,0.10899649997008964,1.004789799975697,628.1729062999948,632.547670400003,,,,,,,,,,,,,,,,,,,,,,,,,,,,,20,B,2023-12-11_17h50.54.148,gca_avoidance_task,2022.2.4,143.93770371644501,
positions.xlsx,stimuli.xlsx,stimuli/Social2.png,stimuli/Social1.png,stimuli/Nonsocial1.png,stimuli/Nonsocial2.png,,"(0.7, 0.5)",cs_minus_ns,,,,,0,0,0,0,,,,,0,7,7,14,,,,,,,,,,,,,,,,,,,,,,,,,,,,,,,,,,,,,,,,,,,,,,,,,,,,,,,,,,,,,,633.0545654000016,634.3670134000131,632.547670400003,634.3670134000131,634.3670134000131,634.3670134000131,0.007207799993921071,0.013183000031858683,25,reward,1,[0.5626494000316598],[0.5626530000008643],634.9364598999964,634.9364598999964,0.00854290003189817,0.00854290003189817,0.01863130001584068,0.0533605000237003,0.06026990001555532,0.10195119999116287,0.10891609999816865,1.0046591000282206,638.4294361000066,642.2487103000167,,,,,,,,,,,,,,,,,,,,,,,,,,,,,20,B,2023-12-11_17h50.54.148,gca_avoidance_task,2022.2.4,143.93770371644501,
positions.xlsx,stimuli.xlsx,stimuli/Social2.png,stimuli/Social1.png,stimuli/Nonsocial1.png,stimuli/Nonsocial2.png,,"(-0.7, -0.5)",cs_plus_ns,,,,,0,0,0,0,,,,,0,8,8,9,,,,,,,,,,,,,,,,,,,,,,,,,,,,,,,,,,,,,,,,,,,,,,,,,,,,,,,,,,,,,,642.755584199971,644.1861204999732,642.2487103000167,644.1861204999732,644.1861204999732,644.1861204999732,0.0069417000049725175,0.012982800020836294,25,none,0,,,649.1997667999822,649.1997667999822,0.015155099972616881,0.015155099972616881,0.026629099971614778,0.0543706999742426,0.061345099995378405,0.10305909998714924,0.10998499998822808,1.012661000015214,652.6857871999964,656.2273186999955,,,,,,,,,,,,,,,,,,,,,,,,,,,,,20,B,2023-12-11_17h50.54.148,gca_avoidance_task,2022.2.4,143.93770371644501,
positions.xlsx,stimuli.xlsx,stimuli/Social2.png,stimuli/Social1.png,stimuli/Nonsocial1.png,stimuli/Nonsocial2.png,,"(-0.7, -0.5)",cs_minus_ns,,,,,0,0,0,0,,,,,0,9,9,13,,,,,,,,,,,,,,,,,,,,,,,,,,,,,,,,,,,,,,,,,,,,,,,,,,,,,,,,,,,,,,656.7342324000201,658.2966564000235,656.2273186999955,658.2966564000235,658.2966564000235,658.2966564000235,0.0068310999777168036,0.013296099961735308,30,reward,1,[1.2849976999568753],[1.285001199983526],659.5882960999734,659.5882960999734,0.008588100026827306,0.008588100026827306,0.018426400027237833,0.05308929999591783,0.06008219998329878,0.10177070001373067,0.10865860001649708,1.004452700028196,663.0812025999767,666.6088516999735,,,,,,,,,,,,,,,,,,,,,,,,,,,,,20,B,2023-12-11_17h50.54.148,gca_avoidance_task,2022.2.4,143.93770371644501,
positions.xlsx,stimuli.xlsx,stimuli/Social2.png,stimuli/Social1.png,stimuli/Nonsocial1.png,stimuli/Nonsocial2.png,,"(0.7, -0.5)",cs_plus_ns,,,,,0,0,0,0,,,,,0,10,10,11,,,,,,,,,,,,,,,,,,,,,,,,,,,,,,,,,,,,,,,,,,,,,,,,,,,,,,,,,,,,,,667.1157266999944,668.5045697999885,666.6088516999735,668.5045697999885,668.5045697999885,668.5045697999885,0.00724960002116859,0.013010700000450015,30,none,0,,,673.5113239000202,673.5113239000202,0.01413910003611818,0.01413910003611818,0.01981360005447641,0.05446680000750348,0.061416100012138486,0.10305600002175197,0.11008210002910346,1.0127400000346825,677.0042253999854,681.3860470000072,,,,,,,,,,,,,,,,,,,,,,,,,,,,,20,B,2023-12-11_17h50.54.148,gca_avoidance_task,2022.2.4,143.93770371644501,
positions.xlsx,stimuli.xlsx,stimuli/Social2.png,stimuli/Social1.png,stimuli/Nonsocial1.png,stimuli/Nonsocial2.png,,"(0.7, 0.5)",cs_plus_s,,,,,0,0,0,0,,,,,0,11,11,2,,,,,,,,,,,,,,,,,,,,,,,,,,,,,,,,,,,,,,,,,,,,,,,,,,,,,,,,,,,,,,681.8929371000268,683.3928431000095,681.3860470000072,683.3928431000095,683.3928431000095,683.3928431000095,0.006162600009702146,0.013188400014769286,30,none,0,,,688.3996061999933,688.3996061999933,0.014516900002490729,0.014516900002490729,0.019954000017605722,0.05469139997148886,0.06167129997629672,0.10325990000274032,0.11021830001845956,1.0129774999804795,691.8925973000005,695.6910037000198,,,,,,,,,,,,,,,,,,,,,,,,,,,,,20,B,2023-12-11_17h50.54.148,gca_avoidance_task,2022.2.4,143.93770371644501,
positions.xlsx,stimuli.xlsx,stimuli/Social2.png,stimuli/Social1.png,stimuli/Nonsocial1.png,stimuli/Nonsocial2.png,,"(0.7, -0.5)",cs_minus_ns,,,,,0,0,0,0,,,,,0,12,12,15,,,,,,,,,,,,,,,,,,,,,,,,,,,,,,,,,,,,,,,,,,,,,,,,,,,,,,,,,,,,,,696.1979031999945,697.6006698000128,695.6910037000198,697.6006698000128,697.6006698000128,697.6006698000128,0.007425100018735975,0.012914200022350997,35,reward,1,[0.6733669000095688],[0.6733703999780118],698.2811486999854,698.2811486999854,0.007565299980342388,0.007565299980342388,0.018342899973504245,0.053071799979079515,0.05998319998616353,0.10164090001489967,0.10860779997892678,1.004399299970828,701.7741286000237,705.530908500019,,,,,,,,,,,,,,,,,,,,,,,,,,,,,20,B,2023-12-11_17h50.54.148,gca_avoidance_task,2022.2.4,143.93770371644501,
positions.xlsx,stimuli.xlsx,stimuli/Social2.png,stimuli/Social1.png,stimuli/Nonsocial1.png,stimuli/Nonsocial2.png,,"(0.7, -0.5)",cs_plus_s,,,,,0,0,0,0,,,,,0,13,13,3,,,,,,,,,,,,,,,,,,,,,,,,,,,,,,,,,,,,,,,,,,,,,,,,,,,,,,,,,,,,,,706.0377822999726,707.5238583000028,705.530908500019,707.5238583000028,707.5238583000028,707.5238583000028,0.006086900015361607,0.013347200001589954,35,none,0,,,712.5306143999915,712.5306143999915,0.014357200008817017,0.014357200008817017,0.020152300014160573,0.05481400003191084,0.06178920000093058,0.1033947000396438,0.11036769999191165,1.013079900003504,716.0235844000126,720.1067196999793,,,,,,,,,,,,,,,,,,,,,,,,,,,,,20,B,2023-12-11_17h50.54.148,gca_avoidance_task,2022.2.4,143.93770371644501,
positions.xlsx,stimuli.xlsx,stimuli/Social2.png,stimuli/Social1.png,stimuli/Nonsocial1.png,stimuli/Nonsocial2.png,,"(0.7, -0.5)",cs_minus_s,,,,,0,0,0,0,,,,,0,14,14,7,,,,,,,,,,,,,,,,,,,,,,,,,,,,,,,,,,,,,,,,,,,,,,,,,,,,,,,,,,,,,,720.6136251999997,721.6691395000089,720.1067196999793,721.6691395000089,721.6691395000089,721.6691395000089,0.006463899975642562,0.013123499986249954,40,reward,1,[0.4098255999851972],[0.4169840000104159],722.0927119000116,722.0927119000116,0.007550399983301759,0.007550399983301759,0.018495199969038367,0.05317199998535216,0.060107800003606826,0.10180609999224544,0.10870959999738261,1.0045232999837026,725.5856836999883,729.300808799977,,,,,,,,,,,,,,,,,,,,,,,,,,,,,20,B,2023-12-11_17h50.54.148,gca_avoidance_task,2022.2.4,143.93770371644501,
positions.xlsx,stimuli.xlsx,stimuli/Social2.png,stimuli/Social1.png,stimuli/Nonsocial1.png,stimuli/Nonsocial2.png,,"(0.7, 0.5)",cs_plus_ns,,,,,0,0,0,0,,,,,0,15,15,10,,,,,,,,,,,,,,,,,,,,,,,,,,,,,,,,,,,,,,,,,,,,,,,,,,,,,,,,,,,,,,729.8076921000029,731.029979599989,729.300808799977,731.029979599989,731.029979599989,731.029979599989,0.0074976999894715846,0.012947299983352423,40,none,0,,,736.0436179999961,736.0436179999961,0.014152699965052307,0.014152699965052307,0.02660819998709485,0.0542847000178881,0.06127820000983775,0.10286589997122064,0.10983059997670352,1.0125739999930374,739.529598299996,743.6960737999761,,,,,,,,,,,,,,,,,,,,,,,,,,,,,20,B,2023-12-11_17h50.54.148,gca_avoidance_task,2022.2.4,143.93770371644501,
positions.xlsx,stimuli.xlsx,stimuli/Social2.png,stimuli/Social1.png,stimuli/Nonsocial1.png,stimuli/Nonsocial2.png,,"(-0.7, 0.5)",cs_minus_ns,,,,,0,0,0,0,,,,,1,0,16,12,,,,,,,,,,,,,,,,,,,,,,,,,,,,,,,,,,,,,,,,,,,,,,,,,,,,,,,,,,,,,,744.2029706999892,746.1264968999894,743.6960737999761,746.1264968999894,746.1264968999894,746.1264968999894,0.006704400002490729,0.01317579997703433,45,reward,1,[0.6389788999804296],[0.6389825000078417],746.7723037999822,746.7723037999822,0.007910900050774217,0.007910900050774217,0.018506100052036345,0.053246800031047314,0.06017220002831891,0.10177920002024621,0.10874280001735315,1.0045520000276156,750.2652235999703,753.772086300014,,,,,,,,,,,,,,,,,,,,,,,,,,,,,20,B,2023-12-11_17h50.54.148,gca_avoidance_task,2022.2.4,143.93770371644501,
positions.xlsx,stimuli.xlsx,stimuli/Social2.png,stimuli/Social1.png,stimuli/Nonsocial1.png,stimuli/Nonsocial2.png,,"(0.7, 0.5)",cs_minus_ns,,,,,0,0,0,0,,,,,1,1,17,14,,,,,,,,,,,,,,,,,,,,,,,,,,,,,,,,,,,,,,,,,,,,,,,,,,,,,,,,,,,,,,754.278942200006,755.4734065000084,753.772086300014,755.4734065000084,755.4734065000084,755.4734065000084,0.006194699963089079,0.013510299962945282,50,reward,1,[0.6184132999624126],[0.6184167999890633],756.0983750000014,756.0983750000014,0.007152399979531765,0.007152399979531765,0.01851099997293204,0.0531050999998115,0.06008189998101443,0.10172569996211678,0.10867649997817352,1.0044473999878392,759.5913236999768,763.4453135000076,,,,,,,,,,,,,,,,,,,,,,,,,,,,,20,B,2023-12-11_17h50.54.148,gca_avoidance_task,2022.2.4,143.93770371644501,
positions.xlsx,stimuli.xlsx,stimuli/Social2.png,stimuli/Social1.png,stimuli/Nonsocial1.png,stimuli/Nonsocial2.png,,"(0.7, -0.5)",cs_plus_s,,,,,0,0,0,0,,,,,1,2,18,3,,,,,,,,,,,,,,,,,,,,,,,,,,,,,,,,,,,,,,,,,,,,,,,,,,,,,,,,,,,,,,763.9521922999993,765.7507499000058,763.4453135000076,765.7507499000058,765.7507499000058,765.7507499000058,0.006026599963661283,0.013218199950642884,50,none,0,,,770.7575195999816,770.7575195999816,0.01347069995244965,0.01347069995244965,0.020024899975396693,0.054646699980366975,0.061621899949386716,0.10323649999918416,0.11018989997683093,1.0129082999774255,774.250427299994,778.7155545999995,,,,,,,,,,,,,,,,,,,,,,,,,,,,,20,B,2023-12-11_17h50.54.148,gca_avoidance_task,2022.2.4,143.93770371644501,
positions.xlsx,stimuli.xlsx,stimuli/Social2.png,stimuli/Social1.png,stimuli/Nonsocial1.png,stimuli/Nonsocial2.png,,"(-0.7, 0.5)",cs_plus_s,,,,,0,0,0,0,,,,,1,3,19,0,,,,,,,,,,,,,,,,,,,,,,,,,,,,,,,,,,,,,,,,,,,,,,,,,,,,,,,,,,,,,,779.2224247999839,780.7015281000058,778.7155545999995,780.7015281000058,780.7015281000058,780.7015281000058,0.006855599989648908,0.013264400011394173,50,none,0,,,785.7082482000114,785.7082482000114,0.014252100023441017,0.014252100023441017,0.019968200009316206,0.054636500019114465,0.06161680002696812,0.10329170001205057,0.11026290000882,1.0129399999859743,789.2011878999765,792.8538334000041,,,,,,,,,,,,,,,,,,,,,,,,,,,,,20,B,2023-12-11_17h50.54.148,gca_avoidance_task,2022.2.4,143.93770371644501,
positions.xlsx,stimuli.xlsx,stimuli/Social2.png,stimuli/Social1.png,stimuli/Nonsocial1.png,stimuli/Nonsocial2.png,,"(-0.7, -0.5)",cs_plus_ns,,,,,0,0,0,0,,,,,1,4,20,9,,,,,,,,,,,,,,,,,,,,,,,,,,,,,,,,,,,,,,,,,,,,,,,,,,,,,,,,,,,,,,793.3607317000278,794.6384975999827,792.8538334000041,794.6384975999827,794.6384975999827,794.6384975999827,0.007020199962425977,0.013141499948687851,50,shock,1,[0.32647539995377883],[0.32647909998195246],794.971824600012,794.971824600012,0.008059700019657612,0.008059700019657612,0.0186843000119552,0.05333800002699718,0.06031190004432574,0.10197250003693625,0.10896720003802329,1.0046955000143498,798.4647318000207,802.7493038999964,,,,,,,,,,,,,,,,,,,,,,,,,,,,,20,B,2023-12-11_17h50.54.148,gca_avoidance_task,2022.2.4,143.93770371644501,
positions.xlsx,stimuli.xlsx,stimuli/Social2.png,stimuli/Social1.png,stimuli/Nonsocial1.png,stimuli/Nonsocial2.png,,"(-0.7, 0.5)",cs_minus_s,,,,,0,0,0,0,,,,,1,5,21,4,,,,,,,,,,,,,,,,,,,,,,,,,,,,,,,,,,,,,,,,,,,,,,,,,,,,,,,,,,,,,,803.256175699993,804.3603005000041,802.7493038999964,804.3603005000041,804.3603005000041,804.3603005000041,0.005643799959216267,0.01302630000282079,55,reward,1,[0.48647609999170527],[0.48649369995109737],804.8534150000196,804.8534150000196,0.00842879997799173,0.00842879997799173,0.01792269997531548,0.05252329999348149,0.0594717999920249,0.10102920001372695,0.10800930002005771,1.0038073000032455,808.3462579000043,812.116968700022,,,,,,,,,,,,,,,,,,,,,,,,,,,,,20,B,2023-12-11_17h50.54.148,gca_avoidance_task,2022.2.4,143.93770371644501,
positions.xlsx,stimuli.xlsx,stimuli/Social2.png,stimuli/Social1.png,stimuli/Nonsocial1.png,stimuli/Nonsocial2.png,,"(0.7, 0.5)",cs_plus_ns,,,,,0,0,0,0,,,,,1,6,22,10,,,,,,,,,,,,,,,,,,,,,,,,,,,,,,,,,,,,,,,,,,,,,,,,,,,,,,,,,,,,,,812.623849799973,814.5196360999835,812.116968700022,814.5196360999835,814.5196360999835,814.5196360999835,0.006636400008574128,0.013146000041160733,55,none,0,,,819.5333594999975,819.5333594999975,0.014519600023049861,0.014519600023049861,0.026879800017923117,0.05455440003424883,0.06153080001240596,0.1032075000111945,0.11017080000601709,1.0129194000037387,823.0192945000017,826.5678186999867,,,,,,,,,,,,,,,,,,,,,,,,,,,,,20,B,2023-12-11_17h50.54.148,gca_avoidance_task,2022.2.4,143.93770371644501,
positions.xlsx,stimuli.xlsx,stimuli/Social2.png,stimuli/Social1.png,stimuli/Nonsocial1.png,stimuli/Nonsocial2.png,,"(0.7, 0.5)",cs_plus_s,,,,,0,0,0,0,,,,,1,7,23,2,,,,,,,,,,,,,,,,,,,,,,,,,,,,,,,,,,,,,,,,,,,,,,,,,,,,,,,,,,,,,,827.0746711000102,828.1649204000132,826.5678186999867,828.1649204000132,828.1649204000132,828.1649204000132,0.006298099993728101,0.013372499961405993,55,none,0,,,833.1716604999965,833.1716604999965,0.01402179995784536,0.01402179995784536,0.020097600005101413,0.05478409997886047,0.06178389996057376,0.10337570001138374,0.11034690000815317,1.0130927999853157,836.6645753000048,840.8727636000258,,,,,,,,,,,,,,,,,,,,,,,,,,,,,20,B,2023-12-11_17h50.54.148,gca_avoidance_task,2022.2.4,143.93770371644501,
positions.xlsx,stimuli.xlsx,stimuli/Social2.png,stimuli/Social1.png,stimuli/Nonsocial1.png,stimuli/Nonsocial2.png,,"(0.7, -0.5)",cs_minus_ns,,,,,0,0,0,0,,,,,1,8,24,15,,,,,,,,,,,,,,,,,,,,,,,,,,,,,,,,,,,,,,,,,,,,,,,,,,,,,,,,,,,,,,841.379666999972,842.5463055999717,840.8727636000258,842.5463055999717,842.5463055999717,842.5463055999717,0.007207399990875274,0.013488199969287962,60,reward,1,[0.5631509999511763],[0.5631547999801114],843.1157201000024,843.1157201000024,0.008094799995888025,0.008094799995888025,0.01849950000178069,0.05317590001504868,0.060102100018411875,0.10176470002625138,0.10871790000237525,1.0044682000298053,846.608660799975,850.1779666999937,,,,,,,,,,,,,,,,,,,,,,,,,,,,,20,B,2023-12-11_17h50.54.148,gca_avoidance_task,2022.2.4,143.93770371644501,
positions.xlsx,stimuli.xlsx,stimuli/Social2.png,stimuli/Social1.png,stimuli/Nonsocial1.png,stimuli/Nonsocial2.png,,"(-0.7, -0.5)",cs_plus_s,,,,,0,0,0,0,,,,,1,9,25,1,,,,,,,,,,,,,,,,,,,,,,,,,,,,,,,,,,,,,,,,,,,,,,,,,,,,,,,,,,,,,,850.6848743999726,852.3237169000204,850.1779666999937,852.3237169000204,852.3237169000204,852.3237169000204,0.006099899997934699,0.013276899990160018,60,none,0,,,857.3304373999708,857.3304373999708,0.013471800019033253,0.013471800019033253,0.019945000007282943,0.05463560001226142,0.06161979999160394,0.10318929998902604,0.11019799998030066,1.0129123000078835,860.8233474000008,864.4552077000262,,,,,,,,,,,,,,,,,,,,,,,,,,,,,20,B,2023-12-11_17h50.54.148,gca_avoidance_task,2022.2.4,143.93770371644501,
positions.xlsx,stimuli.xlsx,stimuli/Social2.png,stimuli/Social1.png,stimuli/Nonsocial1.png,stimuli/Nonsocial2.png,,"(0.7, 0.5)",cs_minus_s,,,,,0,0,0,0,,,,,1,10,26,6,,,,,,,,,,,,,,,,,,,,,,,,,,,,,,,,,,,,,,,,,,,,,,,,,,,,,,,,,,,,,,864.9620770000038,866.4134123999975,864.4552077000262,866.4134123999975,866.4134123999975,866.4134123999975,0.006165799975860864,0.013531799952033907,65,reward,1,[0.5699383999453858],[0.5699422999750823],866.9897991999751,866.9897991999751,0.007921400014311075,0.007921400014311075,0.018439700012095273,0.053079100034665316,0.0600809000316076,0.10167930001625791,0.10866339999483898,1.0044363000197336,870.482721599983,874.0589654999785,,,,,,,,,,,,,,,,,,,,,,,,,,,,,20,B,2023-12-11_17h50.54.148,gca_avoidance_task,2022.2.4,143.93770371644501,
positions.xlsx,stimuli.xlsx,stimuli/Social2.png,stimuli/Social1.png,stimuli/Nonsocial1.png,stimuli/Nonsocial2.png,,"(0.7, -0.5)",cs_plus_ns,,,,,0,0,0,0,,,,,1,11,27,11,,,,,,,,,,,,,,,,,,,,,,,,,,,,,,,,,,,,,,,,,,,,,,,,,,,,,,,,,,,,,,874.5658478999976,875.5935889999964,874.0589654999785,875.5935889999964,875.5935889999964,875.5935889999964,0.0069481999962590635,0.013594000018201768,65,none,0,,,880.6003531999886,880.6003531999886,0.014398799976333976,0.014398799976333976,0.020321100018918514,0.05500420002499595,0.061963099986314774,0.10365850001107901,0.11056050000479445,1.0133282000315376,884.0932602999965,887.7875760999741,,,,,,,,,,,,,,,,,,,,,,,,,,,,,20,B,2023-12-11_17h50.54.148,gca_avoidance_task,2022.2.4,143.93770371644501,
positions.xlsx,stimuli.xlsx,stimuli/Social2.png,stimuli/Social1.png,stimuli/Nonsocial1.png,stimuli/Nonsocial2.png,,"(-0.7, -0.5)",cs_minus_s,,,,,0,0,0,0,,,,,1,12,28,5,,,,,,,,,,,,,,,,,,,,,,,,,,,,,,,,,,,,,,,,,,,,,,,,,,,,,,,,,,,,,,888.2945063000079,889.3916880000033,887.7875760999741,889.3916880000033,889.3916880000033,889.3916880000033,0.006097300036344677,0.013272400014102459,70,reward,1,[0.5697627000045031],[0.5697664000326768],889.9680120000266,889.9680120000266,0.00730429997202009,0.00730429997202009,0.017897300014737993,0.05260309996083379,0.059599599975626916,0.10122720000799745,0.10815619997447357,1.0038788999663666,893.4609739999869,897.1622602000134,,,,,,,,,,,,,,,,,,,,,,,,,,,,,20,B,2023-12-11_17h50.54.148,gca_avoidance_task,2022.2.4,143.93770371644501,
positions.xlsx,stimuli.xlsx,stimuli/Social2.png,stimuli/Social1.png,stimuli/Nonsocial1.png,stimuli/Nonsocial2.png,,"(0.7, -0.5)",cs_minus_s,,,,,0,0,0,0,,,,,1,13,29,7,,,,,,,,,,,,,,,,,,,,,,,,,,,,,,,,,,,,,,,,,,,,,,,,,,,,,,,,,,,,,,897.6691489000223,899.6343190000043,897.1622602000134,899.6343190000043,899.6343190000043,899.6343190000043,0.0064151999540627,0.01296399999409914,75,reward,1,[0.5762508999905549],[0.576254399958998],900.2176608999725,900.2176608999725,0.007103499956429005,0.007103499956429005,0.018332400009967387,0.052971099968999624,0.059971699956804514,0.1016313000000082,0.10857069998746738,1.0043206999544054,903.7106052999734,908.196486699977,,,,,,,,,,,,,,,,,,,,,,,,,,,,,20,B,2023-12-11_17h50.54.148,gca_avoidance_task,2022.2.4,143.93770371644501,
positions.xlsx,stimuli.xlsx,stimuli/Social2.png,stimuli/Social1.png,stimuli/Nonsocial1.png,stimuli/Nonsocial2.png,,"(-0.7, -0.5)",cs_minus_ns,,,,,0,0,0,0,,,,,1,14,30,13,,,,,,,,,,,,,,,,,,,,,,,,,,,,,,,,,,,,,,,,,,,,,,,,,,,,,,,,,,,,,,908.7033967999741,910.5644477999886,908.196486699977,910.5644477999886,910.5644477999886,910.5644477999886,0.007194000005256385,0.013127900019753724,80,reward,1,[0.7779605999821797],[0.7779644000111148],911.3491990999901,911.3491990999901,0.008615800004918128,0.008615800004918128,0.01844009995693341,0.05307149997679517,0.06005129998084158,0.10168709995923564,0.10861399996792898,1.0044327999930829,914.842098699999,918.376699400018,,,,,,,,,,,,,,,,,,,,,,,,,,,,,20,B,2023-12-11_17h50.54.148,gca_avoidance_task,2022.2.4,143.93770371644501,
positions.xlsx,stimuli.xlsx,stimuli/Social2.png,stimuli/Social1.png,stimuli/Nonsocial1.png,stimuli/Nonsocial2.png,,"(-0.7, 0.5)",cs_plus_ns,,,,,0,0,0,0,,,,,1,15,31,8,,,,,,,,,,,,,,,,,,,,,,,,,,,,,,,,,,,,,,,,,,,,,,,,,,,,,,,,,,,,,,918.8835503999726,920.7445927999797,918.376699400018,920.7445927999797,920.7445927999797,920.7445927999797,0.006405199994333088,0.013329699984751642,80,none,0,,,925.7513600999955,925.7513600999955,0.014250800013542175,0.014250800013542175,0.020086499978788197,0.05472890002420172,0.06172370002605021,0.10335360001772642,0.11029889999190345,1.0130323999910615,929.2443188999896,932.3899964999873,,,,,,,,,,,,,,,,,,,,,,,,,,,,,20,B,2023-12-11_17h50.54.148,gca_avoidance_task,2022.2.4,143.93770371644501,
positions.xlsx,stimuli.xlsx,stimuli/Social2.png,stimuli/Social1.png,stimuli/Nonsocial1.png,stimuli/Nonsocial2.png,,"(0.7, 0.5)",cs_minus_s,,,,,0,0,0,0,,,,,,,,,0,0,0,6,,,,,,,,,,,,,,,,,,,,,,,,,,,,,,,,,,,,,,,,,,,,,,,,,,,,,,,,,,964.4095204999903,965.527553700027,963.909597299993,965.527553700027,965.527553700027,965.527553700027,0.006329700001515448,0.01334040000801906,85,reward,1,[0.31300279998686165],[0.3130066000157967],965.8470049999887,965.8470049999887,0.00763330003246665,0.00763330003246665,0.018045400036498904,0.05274529999587685,0.05964769999263808,0.10130939999362454,0.1082569999853149,1.0040669000009075,969.3399159000255,973.6314751000027,932.3899964999873,932.3899964999873,932.3899964999873,932.3899964999873,space,29.533282299991697,,,,,,,,,,,,,,,,,,,,,,,20,B,2023-12-11_17h50.54.148,gca_avoidance_task,2022.2.4,143.93770371644501,
positions.xlsx,stimuli.xlsx,stimuli/Social2.png,stimuli/Social1.png,stimuli/Nonsocial1.png,stimuli/Nonsocial2.png,,"(-0.7, -0.5)",cs_minus_s,,,,,0,0,0,0,,,,,,,,,0,1,1,5,,,,,,,,,,,,,,,,,,,,,,,,,,,,,,,,,,,,,,,,,,,,,,,,,,,,,,,,,,974.1383529999875,975.978578499984,973.6314751000027,975.978578499984,975.978578499984,975.978578499984,0.006114200048614293,0.013170599995646626,90,reward,1,[0.4931601000134833],[0.4931637000408955],976.4785327999853,976.4785327999853,0.006389499991200864,0.006389499991200864,0.018447999958880246,0.05311300000175834,0.06006409996189177,0.10176869999850169,0.10867609997512773,1.0044633999932557,979.9715014999965,984.3254860999878,,,,,,,,,,,,,,,,,,,,,,,,,,,,,20,B,2023-12-11_17h50.54.148,gca_avoidance_task,2022.2.4,143.93770371644501,
positions.xlsx,stimuli.xlsx,stimuli/Social2.png,stimuli/Social1.png,stimuli/Nonsocial1.png,stimuli/Nonsocial2.png,,"(-0.7, 0.5)",cs_plus_ns,,,,,0,0,0,0,,,,,,,,,0,2,2,8,,,,,,,,,,,,,,,,,,,,,,,,,,,,,,,,,,,,,,,,,,,,,,,,,,,,,,,,,,984.8323831000016,986.0684219999821,984.3254860999878,986.0684219999821,986.0684219999821,986.0684219999821,0.006285100011155009,0.013494200014974922,90,none,0,,,991.07519459998,991.07519459998,0.014335100015159696,0.014335100015159696,0.020294599991757423,0.05496169999241829,0.06186309998156503,0.1035674000158906,0.11046779999742284,1.013195400009863,994.5681469999836,998.5679758000188,,,,,,,,,,,,,,,,,,,,,,,,,,,,,20,B,2023-12-11_17h50.54.148,gca_avoidance_task,2022.2.4,143.93770371644501,
positions.xlsx,stimuli.xlsx,stimuli/Social2.png,stimuli/Social1.png,stimuli/Nonsocial1.png,stimuli/Nonsocial2.png,,"(0.7, -0.5)",cs_minus_s,,,,,0,0,0,0,,,,,,,,,0,3,3,7,,,,,,,,,,,,,,,,,,,,,,,,,,,,,,,,,,,,,,,,,,,,,,,,,,,,,,,,,,999.0748644000269,1000.4636895000003,998.5679758000188,1000.4636895000003,1000.4636895000003,1000.4636895000003,0.005917200003750622,0.013258800026960671,95,reward,1,[0.20160200004465878],[0.20160550001310185],1000.6720264999894,1000.6720264999894,0.0071561000077053905,0.0071561000077053905,0.018388599972240627,0.05306939996080473,0.060020499979145825,0.10172989999409765,0.10866879997774959,1.0044233999797143,1004.1650582000148,1008.4633968999842,,,,,,,,,,,,,,,,,,,,,,,,,,,,,20,B,2023-12-11_17h50.54.148,gca_avoidance_task,2022.2.4,143.93770371644501,
positions.xlsx,stimuli.xlsx,stimuli/Social2.png,stimuli/Social1.png,stimuli/Nonsocial1.png,stimuli/Nonsocial2.png,,"(0.7, 0.5)",cs_minus_ns,,,,,0,0,0,0,,,,,,,,,0,4,4,14,,,,,,,,,,,,,,,,,,,,,,,,,,,,,,,,,,,,,,,,,,,,,,,,,,,,,,,,,,1008.9703083999921,1010.4911736000213,1008.4633968999842,1010.4911736000213,1010.4911736000213,1010.4911736000213,0.006378100020810962,0.01356720004696399,100,reward,1,[0.6878000000142492],[0.6878040000447072],1011.1855472999741,1011.1855472999741,0.007469100004527718,0.007469100004527718,0.018913599953521043,0.05355969996890053,0.060488899995107204,0.10215599997900426,0.10913539998000488,1.0049080000026152,1014.6784870999982,1018.8310995000065,,,,,,,,,,,,,,,,,,,,,,,,,,,,,20,B,2023-12-11_17h50.54.148,gca_avoidance_task,2022.2.4,143.93770371644501,
positions.xlsx,stimuli.xlsx,stimuli/Social2.png,stimuli/Social1.png,stimuli/Nonsocial1.png,stimuli/Nonsocial2.png,,"(-0.7, -0.5)",cs_minus_ns,,,,,0,0,0,0,,,,,,,,,0,5,5,13,,,,,,,,,,,,,,,,,,,,,,,,,,,,,,,,,,,,,,,,,,,,,,,,,,,,,,,,,,1019.3379671999719,1020.935109300015,1018.8310995000065,1020.935109300015,1020.935109300015,1020.935109300015,0.006595599988941103,0.013284399989061058,105,reward,1,[0.6391508000087924],[0.6391542999772355],1021.5809360999847,1021.5809360999847,0.007604900049045682,0.007604900049045682,0.01825770002324134,0.052959399996325374,0.05989400000544265,0.10154659999534488,0.10848059999989346,1.0042406000429764,1025.0739112999872,1028.9556709000026,,,,,,,,,,,,,,,,,,,,,,,,,,,,,20,B,2023-12-11_17h50.54.148,gca_avoidance_task,2022.2.4,143.93770371644501,
positions.xlsx,stimuli.xlsx,stimuli/Social2.png,stimuli/Social1.png,stimuli/Nonsocial1.png,stimuli/Nonsocial2.png,,"(0.7, -0.5)",cs_plus_s,,,,,0,0,0,0,,,,,,,,,0,6,6,3,,,,,,,,,,,,,,,,,,,,,,,,,,,,,,,,,,,,,,,,,,,,,,,,,,,,,,,,,,1029.462566400005,1030.5736165000126,1028.9556709000026,1030.5736165000126,1030.5736165000126,1030.5736165000126,0.006086300010792911,0.013469700003042817,105,none,0,,,1035.5803721999982,1035.5803721999982,0.014025800046510994,0.014025800046510994,0.020230800029821694,0.05488760001026094,0.061869800032582134,0.10354510002071038,0.11050170002272353,1.0131859999964945,1039.0733147999854,1043.163427099993,,,,,,,,,,,,,,,,,,,,,,,,,,,,,20,B,2023-12-11_17h50.54.148,gca_avoidance_task,2022.2.4,143.93770371644501,
positions.xlsx,stimuli.xlsx,stimuli/Social2.png,stimuli/Social1.png,stimuli/Nonsocial1.png,stimuli/Nonsocial2.png,,"(0.7, -0.5)",cs_minus_ns,,,,,0,0,0,0,,,,,,,,,0,7,7,15,,,,,,,,,,,,,,,,,,,,,,,,,,,,,,,,,,,,,,,,,,,,,,,,,,,,,,,,,,1043.6703371999902,1045.5522024999955,1043.163427099993,1045.5522024999955,1045.5522024999955,1045.5522024999955,0.00664800003869459,0.012895200052298605,110,reward,1,[0.6596785000292584],[0.6596824000007473],1046.2188309999765,1046.2188309999765,0.00858730002073571,0.00858730002073571,0.01855829998385161,0.053240699984598905,0.06019590003415942,0.10186709999106824,0.10881740000331774,1.0046388999908231,1049.7118265000172,1054.190800499986,,,,,,,,,,,,,,,,,,,,,,,,,,,,,20,B,2023-12-11_17h50.54.148,gca_avoidance_task,2022.2.4,143.93770371644501,
positions.xlsx,stimuli.xlsx,stimuli/Social2.png,stimuli/Social1.png,stimuli/Nonsocial1.png,stimuli/Nonsocial2.png,,"(-0.7, 0.5)",cs_minus_s,,,,,0,0,0,0,,,,,,,,,0,8,8,4,,,,,,,,,,,,,,,,,,,,,,,,,,,,,,,,,,,,,,,,,,,,,,,,,,,,,,,,,,1054.6976615000167,1056.5378869000124,1054.190800499986,1056.5378869000124,1056.5378869000124,1056.5378869000124,0.005572100053541362,0.013047900050878525,115,reward,1,[0.5832713000127114],[0.5832750000408851],1057.1281693999772,1057.1281693999772,0.006666200002655387,0.006666200002655387,0.018587900034617633,0.05331290001049638,0.060232400021050125,0.10182090004673228,0.10880350001389161,1.0045573000097647,1060.6210805000155,1064.7320156000205,,,,,,,,,,,,,,,,,,,,,,,,,,,,,20,B,2023-12-11_17h50.54.148,gca_avoidance_task,2022.2.4,143.93770371644501,
positions.xlsx,stimuli.xlsx,stimuli/Social2.png,stimuli/Social1.png,stimuli/Nonsocial1.png,stimuli/Nonsocial2.png,,"(-0.7, -0.5)",cs_plus_s,,,,,0,0,0,0,,,,,,,,,0,9,9,1,,,,,,,,,,,,,,,,,,,,,,,,,,,,,,,,,,,,,,,,,,,,,,,,,,,,,,,,,,1065.2389149999944,1066.731940000027,1064.7320156000205,1066.731940000027,1066.731940000027,1066.731940000027,0.005854499991983175,0.013317100005224347,115,none,0,,,1071.738694700005,1071.738694700005,0.013755600026343018,0.013755600026343018,0.020066500001121312,0.05475579999620095,0.06165430002147332,0.10338540002703667,0.11032259999774396,1.0130481999949552,1075.2315988999908,1079.3772520999773,,,,,,,,,,,,,,,,,,,,,,,,,,,,,20,B,2023-12-11_17h50.54.148,gca_avoidance_task,2022.2.4,143.93770371644501,
positions.xlsx,stimuli.xlsx,stimuli/Social2.png,stimuli/Social1.png,stimuli/Nonsocial1.png,stimuli/Nonsocial2.png,,"(0.7, 0.5)",cs_plus_ns,,,,,0,0,0,0,,,,,,,,,0,10,10,10,,,,,,,,,,,,,,,,,,,,,,,,,,,,,,,,,,,,,,,,,,,,,,,,,,,,,,,,,,1079.8841943999869,1080.9327610000037,1079.3772520999773,1080.9327610000037,1080.9327610000037,1080.9327610000037,0.006301000015810132,0.01314029999775812,115,none,0,,,1085.93949780002,1085.93949780002,0.013823600020259619,0.013823600020259619,0.01986960001522675,0.05457530001876876,0.06153509998694062,0.10318009997718036,0.11014120001345873,1.012825999991037,1089.4324617999955,1093.1336922000046,,,,,,,,,,,,,,,,,,,,,,,,,,,,,20,B,2023-12-11_17h50.54.148,gca_avoidance_task,2022.2.4,143.93770371644501,
positions.xlsx,stimuli.xlsx,stimuli/Social2.png,stimuli/Social1.png,stimuli/Nonsocial1.png,stimuli/Nonsocial2.png,,"(-0.7, -0.5)",cs_plus_ns,,,,,0,0,0,0,,,,,,,,,0,11,11,9,,,,,,,,,,,,,,,,,,,,,,,,,,,,,,,,,,,,,,,,,,,,,,,,,,,,,,,,,,1093.6405861999956,1094.9669426999753,1093.1336922000046,1094.9669426999753,1094.9669426999753,1094.9669426999753,0.006763399986084551,0.013076100032776594,115,none,0,,,1099.9737140000216,1099.9737140000216,0.014163399988319725,0.014163399988319725,0.019858399988152087,0.05457959999330342,0.061500900017563254,0.10309490002691746,0.1100760999834165,1.0127882999950089,1103.4666050000233,1107.7927937000059,,,,,,,,,,,,,,,,,,,,,,,,,,,,,20,B,2023-12-11_17h50.54.148,gca_avoidance_task,2022.2.4,143.93770371644501,
positions.xlsx,stimuli.xlsx,stimuli/Social2.png,stimuli/Social1.png,stimuli/Nonsocial1.png,stimuli/Nonsocial2.png,,"(-0.7, 0.5)",cs_minus_ns,,,,,0,0,0,0,,,,,,,,,0,12,12,12,,,,,,,,,,,,,,,,,,,,,,,,,,,,,,,,,,,,,,,,,,,,,,,,,,,,,,,,,,1108.2997401999892,1110.1746882000007,1107.7927937000059,1110.1746882000007,1110.1746882000007,1110.1746882000007,0.006273100036196411,0.013083700032439083,120,reward,1,[0.5836003000149503],[0.5836041000438854],1110.7649438999943,1110.7649438999943,0.00777249998645857,0.00777249998645857,0.018322399992030114,0.05297520000021905,0.059975999989546835,0.10159019997809082,0.10856020002393052,1.0043587000109255,1114.257908599975,1118.1119215000072,,,,,,,,,,,,,,,,,,,,,,,,,,,,,20,B,2023-12-11_17h50.54.148,gca_avoidance_task,2022.2.4,143.93770371644501,
positions.xlsx,stimuli.xlsx,stimuli/Social2.png,stimuli/Social1.png,stimuli/Nonsocial1.png,stimuli/Nonsocial2.png,,"(0.7, -0.5)",cs_plus_ns,,,,,0,0,0,0,,,,,,,,,0,13,13,11,,,,,,,,,,,,,,,,,,,,,,,,,,,,,,,,,,,,,,,,,,,,,,,,,,,,,,,,,,1118.618803600024,1120.4868205999956,1118.1119215000072,1120.4868205999956,1120.4868205999956,1120.4868205999956,0.006271099962759763,0.013060699973721057,120,none,0,,,1125.5004478999763,1125.5004478999763,0.0143211999675259,0.0143211999675259,0.02671909995842725,0.054482299950905144,0.06138389999978244,0.10304359998553991,0.11001189996022731,1.0127222999581136,1128.9864379999926,1132.7501957999775,,,,,,,,,,,,,,,,,,,,,,,,,,,,,20,B,2023-12-11_17h50.54.148,gca_avoidance_task,2022.2.4,143.93770371644501,
positions.xlsx,stimuli.xlsx,stimuli/Social2.png,stimuli/Social1.png,stimuli/Nonsocial1.png,stimuli/Nonsocial2.png,,"(-0.7, 0.5)",cs_plus_s,,,,,0,0,0,0,,,,,,,,,0,14,14,0,,,,,,,,,,,,,,,,,,,,,,,,,,,,,,,,,,,,,,,,,,,,,,,,,,,,,,,,,,1133.2570667000255,1134.4792740999837,1132.7501957999775,1134.4792740999837,1134.4792740999837,1134.4792740999837,0.005873300018720329,0.013401700009126216,120,shock,1,[0.2781152999959886],[0.27811900002416223],1134.7639965999988,1134.7639965999988,0.007411399972625077,0.007411399972625077,0.01830339996377006,0.0529806999838911,0.05994269996881485,0.10161749995313585,0.10853669996140525,1.004329199960921,1138.256961999985,1141.8470505999867,,,,,,,,,,,,,,,,,,,,,,,,,,,,,20,B,2023-12-11_17h50.54.148,gca_avoidance_task,2022.2.4,143.93770371644501,
positions.xlsx,stimuli.xlsx,stimuli/Social2.png,stimuli/Social1.png,stimuli/Nonsocial1.png,stimuli/Nonsocial2.png,,"(0.7, 0.5)",cs_plus_s,,,,,0,0,0,0,,,,,,,,,0,15,15,2,,,,,,,,,,,,,,,,,,,,,,,,,,,,,,,,,,,,,,,,,,,,,,,,,,,,,,,,,,1142.3539532999857,1143.7358819000074,1141.8470505999867,1143.7358819000074,1143.7358819000074,1143.7358819000074,0.005702199996449053,0.013037699973210692,120,none,0,,,1148.7426467000041,1148.7426467000041,0.013411799969617277,0.013411799969617277,0.01977639994584024,0.05444909998914227,0.061359999992419034,0.10303439997369424,0.10999249998712912,1.0127702999743633,1152.2355873999768,1155.7770680999965,,,,,,,,,,,,,,,,,,,,,,,,,,,,,20,B,2023-12-11_17h50.54.148,gca_avoidance_task,2022.2.4,143.93770371644501,
positions.xlsx,stimuli.xlsx,stimuli/Social2.png,stimuli/Social1.png,stimuli/Nonsocial1.png,stimuli/Nonsocial2.png,,"(0.7, 0.5)",cs_plus_ns,,,,,0,0,0,0,,,,,,,,,1,0,16,10,,,,,,,,,,,,,,,,,,,,,,,,,,,,,,,,,,,,,,,,,,,,,,,,,,,,,,,,,,1156.2839687999804,1158.186692600022,1155.7770680999965,1158.186692600022,1158.186692600022,1158.186692600022,0.006873500009533018,0.013168400037102401,120,none,0,,,1163.1934440999757,1163.1934440999757,0.01404270000057295,0.01404270000057295,0.019934700045268983,0.054591800027992576,0.061607500014360994,0.10322940000332892,0.11014260002411902,1.0128641000483185,1166.686412399984,1170.3737644000212,,,,,,,,,,,,,,,,,,,,,,,,,,,,,20,B,2023-12-11_17h50.54.148,gca_avoidance_task,2022.2.4,143.93770371644501,
positions.xlsx,stimuli.xlsx,stimuli/Social2.png,stimuli/Social1.png,stimuli/Nonsocial1.png,stimuli/Nonsocial2.png,,"(0.7, 0.5)",cs_minus_ns,,,,,0,0,0,0,,,,,,,,,1,1,17,14,,,,,,,,,,,,,,,,,,,,,,,,,,,,,,,,,,,,,,,,,,,,,,,,,,,,,,,,,,1170.8806081999792,1171.908374999999,1170.3737644000212,1171.908374999999,1171.908374999999,1171.908374999999,0.006262999959290028,0.013469500001519918,125,reward,1,[0.8684973999625072],[0.8685010999906808],1172.7833451000042,1172.7833451000042,0.0075397000182420015,0.0075397000182420015,0.01853930001379922,0.05325660004746169,0.06022990000201389,0.10185670002829283,0.10882770002353936,1.004574100021273,1176.2763099999866,1179.873391799978,,,,,,,,,,,,,,,,,,,,,,,,,,,,,20,B,2023-12-11_17h50.54.148,gca_avoidance_task,2022.2.4,143.93770371644501,
positions.xlsx,stimuli.xlsx,stimuli/Social2.png,stimuli/Social1.png,stimuli/Nonsocial1.png,stimuli/Nonsocial2.png,,"(-0.7, 0.5)",cs_plus_ns,,,,,0,0,0,0,,,,,,,,,1,2,18,8,,,,,,,,,,,,,,,,,,,,,,,,,,,,,,,,,,,,,,,,,,,,,,,,,,,,,,,,,,1180.3802551000263,1182.1093511999934,1179.873391799978,1182.1093511999934,1182.1093511999934,1182.1093511999934,0.0065456999582238495,0.013153499981854111,125,none,0,,,1187.1161214999738,1187.1161214999738,0.013921999954618514,0.013921999954618514,0.01988899998832494,0.05457609996665269,0.061540799972135574,0.10317389998817816,0.1101329000084661,1.012907499971334,1190.6090847000014,1194.4700211000163,,,,,,,,,,,,,,,,,,,,,,,,,,,,,20,B,2023-12-11_17h50.54.148,gca_avoidance_task,2022.2.4,143.93770371644501,
positions.xlsx,stimuli.xlsx,stimuli/Social2.png,stimuli/Social1.png,stimuli/Nonsocial1.png,stimuli/Nonsocial2.png,,"(-0.7, -0.5)",cs_plus_s,,,,,0,0,0,0,,,,,,,,,1,3,19,1,,,,,,,,,,,,,,,,,,,,,,,,,,,,,,,,,,,,,,,,,,,,,,,,,,,,,,,,,,1194.9768925000099,1196.0949074000237,1194.4700211000163,1196.0949074000237,1196.0949074000237,1196.0949074000237,0.0058794000069610775,0.013108499988447875,125,none,0,,,1201.101658599975,1201.101658599975,0.013435299973934889,0.013435299973934889,0.01989230001345277,0.05454829998780042,0.06150609999895096,0.10316009999951348,0.11012849997496232,1.0128676000167616,1204.5945898999926,1208.4069753999938,,,,,,,,,,,,,,,,,,,,,,,,,,,,,20,B,2023-12-11_17h50.54.148,gca_avoidance_task,2022.2.4,143.93770371644501,
positions.xlsx,stimuli.xlsx,stimuli/Social2.png,stimuli/Social1.png,stimuli/Nonsocial1.png,stimuli/Nonsocial2.png,,"(-0.7, -0.5)",cs_minus_s,,,,,0,0,0,0,,,,,,,,,1,4,20,5,,,,,,,,,,,,,,,,,,,,,,,,,,,,,,,,,,,,,,,,,,,,,,,,,,,,,,,,,,1208.9139066999778,1210.0943837999948,1208.4069753999938,1210.0943837999948,1210.0943837999948,1210.0943837999948,0.005873000016435981,0.01290329999756068,130,reward,1,[0.47902790002990514],[0.47903149999910966],1210.5804505000124,1210.5804505000124,0.00733100000070408,0.00733100000070408,0.018599400005768985,0.05333899997640401,0.060275199997704476,0.10191420000046492,0.10889099998166785,1.0046779999975115,1214.073401200003,1218.503826799977,,,,,,,,,,,,,,,,,,,,,,,,,,,,,20,B,2023-12-11_17h50.54.148,gca_avoidance_task,2022.2.4,143.93770371644501,
positions.xlsx,stimuli.xlsx,stimuli/Social2.png,stimuli/Social1.png,stimuli/Nonsocial1.png,stimuli/Nonsocial2.png,,"(0.7, 0.5)",cs_plus_s,,,,,0,0,0,0,,,,,,,,,1,5,21,2,,,,,,,,,,,,,,,,,,,,,,,,,,,,,,,,,,,,,,,,,,,,,,,,,,,,,,,,,,1219.0106921999832,1220.9342159000225,1218.503826799977,1220.9342159000225,1220.9342159000225,1220.9342159000225,0.00576950004324317,0.013344000035431236,130,none,0,,,1225.9409671999747,1225.9409671999747,0.013504500035196543,0.013504500035196543,0.020100400026421994,0.05482070002472028,0.06176020001294091,0.10342850000597537,0.11036980000790209,1.01312090002466,1229.4338988999953,1233.392112099973,,,,,,,,,,,,,,,,,,,,,,,,,,,,,20,B,2023-12-11_17h50.54.148,gca_avoidance_task,2022.2.4,143.93770371644501,
positions.xlsx,stimuli.xlsx,stimuli/Social2.png,stimuli/Social1.png,stimuli/Nonsocial1.png,stimuli/Nonsocial2.png,,"(0.7, -0.5)",cs_plus_s,,,,,0,0,0,0,,,,,,,,,1,6,22,3,,,,,,,,,,,,,,,,,,,,,,,,,,,,,,,,,,,,,,,,,,,,,,,,,,,,,,,,,,1233.8989986000233,1235.3572856999817,1233.392112099973,1235.3572856999817,1235.3572856999817,1235.3572856999817,0.006368099944666028,0.013072999950964004,130,none,0,,,1240.364016300009,1240.364016300009,0.013246699993032962,0.013246699993032962,0.01980619999812916,0.054465900000650436,0.061398599995300174,0.10307139996439219,0.11001769994618371,1.0127816000021994,1243.857009099971,1247.9818408999708,,,,,,,,,,,,,,,,,,,,,,,,,,,,,20,B,2023-12-11_17h50.54.148,gca_avoidance_task,2022.2.4,143.93770371644501,
positions.xlsx,stimuli.xlsx,stimuli/Social2.png,stimuli/Social1.png,stimuli/Nonsocial1.png,stimuli/Nonsocial2.png,,"(0.7, 0.5)",cs_minus_s,,,,,0,0,0,0,,,,,,,,,1,7,23,6,,,,,,,,,,,,,,,,,,,,,,,,,,,,,,,,,,,,,,,,,,,,,,,,,,,,,,,,,,1248.4886833999772,1250.196976999985,1247.9818408999708,1250.196976999985,1250.196976999985,1250.196976999985,0.006084699998609722,0.013153600040823221,135,reward,1,[0.520851900044363],[0.5208557000150904],1250.7247580999974,1250.7247580999974,0.006867899966891855,0.006867899966891855,0.01883740001358092,0.05348120001144707,0.06044759997166693,0.10207989998161793,0.1090451999916695,1.004799099988304,1254.2177164999885,1258.2522752999794,,,,,,,,,,,,,,,,,,,,,,,,,,,,,20,B,2023-12-11_17h50.54.148,gca_avoidance_task,2022.2.4,143.93770371644501,
positions.xlsx,stimuli.xlsx,stimuli/Social2.png,stimuli/Social1.png,stimuli/Nonsocial1.png,stimuli/Nonsocial2.png,,"(0.7, -0.5)",cs_plus_ns,,,,,0,0,0,0,,,,,,,,,1,8,24,11,,,,,,,,,,,,,,,,,,,,,,,,,,,,,,,,,,,,,,,,,,,,,,,,,,,,,,,,,,1258.7591141000157,1259.9396348000155,1258.2522752999794,1259.9396348000155,1259.9396348000155,1259.9396348000155,0.006159900047350675,0.013065400009509176,135,none,0,,,1264.9464164000237,1264.9464164000237,0.01407080003991723,0.01407080003991723,0.019913500000257045,0.054561100027058274,0.061491800006479025,0.10311970004113391,0.11011200002394617,1.0128285000100732,1268.4393703999813,1272.119761399983,,,,,,,,,,,,,,,,,,,,,,,,,,,,,20,B,2023-12-11_17h50.54.148,gca_avoidance_task,2022.2.4,143.93770371644501,
positions.xlsx,stimuli.xlsx,stimuli/Social2.png,stimuli/Social1.png,stimuli/Nonsocial1.png,stimuli/Nonsocial2.png,,"(-0.7, 0.5)",cs_plus_s,,,,,0,0,0,0,,,,,,,,,1,9,25,0,,,,,,,,,,,,,,,,,,,,,,,,,,,,,,,,,,,,,,,,,,,,,,,,,,,,,,,,,,1272.6266514000017,1273.8418728000252,1272.119761399983,1273.8418728000252,1273.8418728000252,1273.8418728000252,0.006061699998099357,0.01314039999851957,135,none,0,,,1278.8486118,1278.8486118,0.014849299972411245,0.014849299972411245,0.019927999994251877,0.0546189000015147,0.0615442999987863,0.10321430000476539,0.11016460001701489,1.0129202000098303,1282.3415505000157,1286.3761114000226,,,,,,,,,,,,,,,,,,,,,,,,,,,,,20,B,2023-12-11_17h50.54.148,gca_avoidance_task,2022.2.4,143.93770371644501,
positions.xlsx,stimuli.xlsx,stimuli/Social2.png,stimuli/Social1.png,stimuli/Nonsocial1.png,stimuli/Nonsocial2.png,,"(-0.7, -0.5)",cs_plus_ns,,,,,0,0,0,0,,,,,,,,,1,10,26,9,,,,,,,,,,,,,,,,,,,,,,,,,,,,,,,,,,,,,,,,,,,,,,,,,,,,,,,,,,1286.8830432000104,1288.6399087000173,1286.3761114000226,1288.6399087000173,1288.6399087000173,1288.6399087000173,0.0067054000101052225,0.013259799976367503,135,none,0,,,1293.6466536999797,1293.6466536999797,0.01450930000282824,0.01450930000282824,0.020052900013979524,0.05471689999103546,0.061672399984672666,0.10334299999522045,0.11032480001449585,1.0129981000209227,1297.1396439999808,1301.5283378000022,,,,,,,,,,,,,,,,,,,,,,,,,,,,,20,B,2023-12-11_17h50.54.148,gca_avoidance_task,2022.2.4,143.93770371644501,
positions.xlsx,stimuli.xlsx,stimuli/Social2.png,stimuli/Social1.png,stimuli/Nonsocial1.png,stimuli/Nonsocial2.png,,"(-0.7, 0.5)",cs_minus_ns,,,,,0,0,0,0,,,,,,,,,1,11,27,12,,,,,,,,,,,,,,,,,,,,,,,,,,,,,,,,,,,,,,,,,,,,,,,,,,,,,,,,,,1302.0352068999782,1303.7851478999946,1301.5283378000022,1303.7851478999946,1303.7851478999946,1303.7851478999946,0.006586600036825985,0.013110200001392514,140,reward,1,[0.7222681000130251],[0.7222718000411987],1304.5142942999955,1304.5142942999955,0.007608199957758188,0.007608199957758188,0.018440699961502105,0.053151899948716164,0.060124199953861535,0.10183479997795075,0.10872389998985454,1.0045033999485895,1308.007266599976,1311.902961099986,,,,,,,,,,,,,,,,,,,,,,,,,,,,,20,B,2023-12-11_17h50.54.148,gca_avoidance_task,2022.2.4,143.93770371644501,
positions.xlsx,stimuli.xlsx,stimuli/Social2.png,stimuli/Social1.png,stimuli/Nonsocial1.png,stimuli/Nonsocial2.png,,"(-0.7, 0.5)",cs_minus_s,,,,,0,0,0,0,,,,,,,,,1,12,28,4,,,,,,,,,,,,,,,,,,,,,,,,,,,,,,,,,,,,,,,,,,,,,,,,,,,,,,,,,,1312.4098218000145,1313.513955399976,1311.902961099986,1313.513955399976,1313.513955399976,1313.513955399976,0.006061799998860806,0.012823500030208379,145,reward,1,[0.576507700025104],[0.5831449000397697],1314.104215200001,1314.104215200001,0.006675700016785413,0.006675700016785413,0.018274900037795305,0.05290390003938228,0.05987709999317303,0.10151130001759157,0.10847580002155155,1.0042232000268996,1317.5971909000073,1321.5206058999756,,,,,,,,,,,,,,,,,,,,,,,,,,,,,20,B,2023-12-11_17h50.54.148,gca_avoidance_task,2022.2.4,143.93770371644501,
positions.xlsx,stimuli.xlsx,stimuli/Social2.png,stimuli/Social1.png,stimuli/Nonsocial1.png,stimuli/Nonsocial2.png,,"(-0.7, -0.5)",cs_minus_ns,,,,,0,0,0,0,,,,,,,,,1,13,29,13,,,,,,,,,,,,,,,,,,,,,,,,,,,,,,,,,,,,,,,,,,,,,,,,,,,,,,,,,,1322.0274865999818,1323.2913372999756,1321.5206058999756,1323.2913372999756,1323.2913372999756,1323.2913372999756,0.006457599985878915,0.013089800020679832,150,reward,1,[0.520869700005278],[0.5208735000342131],1323.819098500011,1323.819098500011,0.007333400018978864,0.007333400018978864,0.018667700001969934,0.053307600028347224,0.06024060002528131,0.10193140001501888,0.10888040001736954,1.004659400030505,1327.3120401999913,1331.1730133999954,,,,,,,,,,,,,,,,,,,,,,,,,,,,,20,B,2023-12-11_17h50.54.148,gca_avoidance_task,2022.2.4,143.93770371644501,
positions.xlsx,stimuli.xlsx,stimuli/Social2.png,stimuli/Social1.png,stimuli/Nonsocial1.png,stimuli/Nonsocial2.png,,"(0.7, -0.5)",cs_minus_s,,,,,0,0,0,0,,,,,,,,,1,14,30,7,,,,,,,,,,,,,,,,,,,,,,,,,,,,,,,,,,,,,,,,,,,,,,,,,,,,,,,,,,1331.67989520001,1333.1728877999703,1331.1730133999954,1333.1728877999703,1333.1728877999703,1333.1728877999703,0.00573090004036203,0.013243100023828447,155,reward,1,[0.5001712000230327],[0.500174600048922],1333.6798183000064,1333.6798183000064,0.0073510000365786254,0.0073510000365786254,0.018452300049830228,0.0531306000193581,0.0600807000300847,0.10174150002421811,0.1087002000422217,1.0044402000494301,1337.172749600024,1340.9087370000198,,,,,,,,,,,,,,,,,,,,,,,,,,,,,20,B,2023-12-11_17h50.54.148,gca_avoidance_task,2022.2.4,143.93770371644501,
positions.xlsx,stimuli.xlsx,stimuli/Social2.png,stimuli/Social1.png,stimuli/Nonsocial1.png,stimuli/Nonsocial2.png,,"(0.7, -0.5)",cs_minus_ns,,,,,0,0,0,0,,,,,,,,,1,15,31,15,,,,,,,,,,,,,,,,,,,,,,,,,,,,,,,,,,,,,,,,,,,,,,,,,,,,,,,,,,1341.415596899984,1342.7628090999788,1340.9087370000198,1342.7628090999788,1342.7628090999788,1342.7628090999788,0.0065617000218480825,0.013417900016065687,160,reward,1,[0.5143997999839485],[0.5144035000121221],1343.2836299000192,1343.2836299000192,0.007573799986857921,0.007573799986857921,0.0182873000157997,0.05296689999522641,0.05991040001390502,0.10152119997655973,0.10850839997874573,1.0043213000171818,1346.7765330999973,1350.429208000016,,,,,,,,,,,,,,,,,,,,,,,,,,,,,20,B,2023-12-11_17h50.54.148,gca_avoidance_task,2022.2.4,143.93770371644501,
positions.xlsx,stimuli.xlsx,stimuli/Social2.png,stimuli/Social1.png,stimuli/Nonsocial1.png,stimuli/Nonsocial2.png,,"(0.7, 0.5)",cs_plus_ns,,,,,0,0,0,0,,,,,,,,,2,0,32,10,,,,,,,,,,,,,,,,,,,,,,,,,,,,,,,,,,,,,,,,,,,,,,,,,,,,,,,,,,1350.9360913999844,1352.2277262000134,1350.429208000016,1352.2277262000134,1352.2277262000134,1352.2277262000134,0.006444900005590171,0.013456900021992624,160,none,0,,,1357.234472399985,1357.234472399985,0.014337199972942472,0.014337199972942472,0.020209599984809756,0.05487910000374541,0.061807500023860484,0.10347849997924641,0.11047379998490214,1.0131734000169672,1360.7274129000143,1365.0259105999721,,,,,,,,,,,,,,,,,,,,,,,,,,,,,20,B,2023-12-11_17h50.54.148,gca_avoidance_task,2022.2.4,143.93770371644501,
positions.xlsx,stimuli.xlsx,stimuli/Social2.png,stimuli/Social1.png,stimuli/Nonsocial1.png,stimuli/Nonsocial2.png,,"(0.7, -0.5)",cs_minus_ns,,,,,0,0,0,0,,,,,,,,,2,1,33,15,,,,,,,,,,,,,,,,,,,,,,,,,,,,,,,,,,,,,,,,,,,,,,,,,,,,,,,,,,1365.5327377999783,1367.1507840999984,1365.0259105999721,1367.1507840999984,1367.1507840999984,1367.1507840999984,0.006342099979519844,0.013611199974548072,165,reward,1,[0.528424299962353],[0.5284279999905266],1367.6854526000097,1367.6854526000097,0.007383399992249906,0.007383399992249906,0.01844910002546385,0.053104199992958456,0.06006320001324639,0.1017602999927476,0.10867620003409684,1.0044588000164367,1371.1783860999858,1374.6852240000153,,,,,,,,,,,,,,,,,,,,,,,,,,,,,20,B,2023-12-11_17h50.54.148,gca_avoidance_task,2022.2.4,143.93770371644501,
positions.xlsx,stimuli.xlsx,stimuli/Social2.png,stimuli/Social1.png,stimuli/Nonsocial1.png,stimuli/Nonsocial2.png,,"(-0.7, 0.5)",cs_minus_s,,,,,0,0,0,0,,,,,,,,,2,2,34,4,,,,,,,,,,,,,,,,,,,,,,,,,,,,,,,,,,,,,,,,,,,,,,,,,,,,,,,,,,1375.1920818000217,1377.164222899999,1374.6852240000153,1377.164222899999,1377.164222899999,1377.164222899999,0.005841900012455881,0.013093399989884347,170,reward,1,[0.5696456999867223],[0.5696493000141345],1377.7406188999885,1377.7406188999885,0.006879499997012317,0.006879499997012317,0.018440700019709766,0.053139900031965226,0.06011580000631511,0.1017242000089027,0.1087116000126116,1.004474300018046,1381.2335953000002,1385.4903607000015,,,,,,,,,,,,,,,,,,,,,,,,,,,,,20,B,2023-12-11_17h50.54.148,gca_avoidance_task,2022.2.4,143.93770371644501,
positions.xlsx,stimuli.xlsx,stimuli/Social2.png,stimuli/Social1.png,stimuli/Nonsocial1.png,stimuli/Nonsocial2.png,,"(-0.7, -0.5)",cs_plus_s,,,,,0,0,0,0,,,,,,,,,2,3,35,1,,,,,,,,,,,,,,,,,,,,,,,,,,,,,,,,,,,,,,,,,,,,,,,,,,,,,,,,,,1385.9972087999922,1387.781868799997,1385.4903607000015,1387.781868799997,1387.781868799997,1387.781868799997,0.005917200003750622,0.012946600036229938,170,none,0,,,1392.7886262999964,1392.7886262999964,0.0132679000380449,0.0132679000380449,0.01973650004947558,0.05436300003202632,0.061331800010520965,0.10298650001641363,0.10996720002731308,1.012687700043898,1396.281565400015,1400.7813915999723,,,,,,,,,,,,,,,,,,,,,,,,,,,,,20,B,2023-12-11_17h50.54.148,gca_avoidance_task,2022.2.4,143.93770371644501,
positions.xlsx,stimuli.xlsx,stimuli/Social2.png,stimuli/Social1.png,stimuli/Nonsocial1.png,stimuli/Nonsocial2.png,,"(0.7, 0.5)",cs_minus_s,,,,,0,0,0,0,,,,,,,,,2,4,36,6,,,,,,,,,,,,,,,,,,,,,,,,,,,,,,,,,,,,,,,,,,,,,,,,,,,,,,,,,,1401.2882852000184,1403.2395941999857,1400.7813915999723,1403.2395941999857,1403.2395941999857,1403.2395941999857,0.006044799985829741,0.012962799984961748,175,reward,1,[0.5276876999996603],[0.5276912999688648],1403.7743421000196,1403.7743421000196,0.007361199997831136,0.007361199997831136,0.01881949999369681,0.053498499968554825,0.06045559997437522,0.10210399999050424,0.10903079999843612,1.0048527999897487,1407.267289899988,1410.774066700018,,,,,,,,,,,,,,,,,,,,,,,,,,,,,20,B,2023-12-11_17h50.54.148,gca_avoidance_task,2022.2.4,143.93770371644501,
positions.xlsx,stimuli.xlsx,stimuli/Social2.png,stimuli/Social1.png,stimuli/Nonsocial1.png,stimuli/Nonsocial2.png,,"(0.7, 0.5)",cs_minus_ns,,,,,0,0,0,0,,,,,,,,,2,5,37,14,,,,,,,,,,,,,,,,,,,,,,,,,,,,,,,,,,,,,,,,,,,,,,,,,,,,,,,,,,1411.2809486999759,1413.079486600007,1410.774066700018,1413.079486600007,1413.079486600007,1413.079486600007,0.0065231999615207314,0.013149499951396137,180,reward,1,[0.569635899970308],[0.5696392999961972],1413.6558732999838,1413.6558732999838,0.00684940000064671,0.00684940000064671,0.018353099992964417,0.05300419998820871,0.05996029998641461,0.10161319997860119,0.10857509996276349,1.004341599997133,1417.1488347999984,1421.1903535000165,,,,,,,,,,,,,,,,,,,,,,,,,,,,,20,B,2023-12-11_17h50.54.148,gca_avoidance_task,2022.2.4,143.93770371644501,
positions.xlsx,stimuli.xlsx,stimuli/Social2.png,stimuli/Social1.png,stimuli/Nonsocial1.png,stimuli/Nonsocial2.png,,"(-0.7, 0.5)",cs_plus_ns,,,,,0,0,0,0,,,,,,,,,2,6,38,8,,,,,,,,,,,,,,,,,,,,,,,,,,,,,,,,,,,,,,,,,,,,,,,,,,,,,,,,,,1421.6972118000267,1423.2457673000172,1421.1903535000165,1423.2457673000172,1423.2457673000172,1423.2457673000172,0.006254500010982156,0.012847899983171374,180,none,0,,,1428.2525519999908,1428.2525519999908,0.013769500015769154,0.013769500015769154,0.019665799976792186,0.054279299976769835,0.06129440001677722,0.10288700001547113,0.10983989998931065,1.0126123999943957,1431.74550249998,1435.3634078999748,,,,,,,,,,,,,,,,,,,,,,,,,,,,,20,B,2023-12-11_17h50.54.148,gca_avoidance_task,2022.2.4,143.93770371644501,
positions.xlsx,stimuli.xlsx,stimuli/Social2.png,stimuli/Social1.png,stimuli/Nonsocial1.png,stimuli/Nonsocial2.png,,"(-0.7, -0.5)",cs_plus_ns,,,,,0,0,0,0,,,,,,,,,2,7,39,9,,,,,,,,,,,,,,,,,,,,,,,,,,,,,,,,,,,,,,,,,,,,,,,,,,,,,,,,,,1435.8702843000065,1437.807709900022,1435.3634078999748,1437.807709900022,1437.807709900022,1437.807709900022,0.0065528000122867525,0.013124199991580099,180,none,0,,,1442.8145004999824,1442.8145004999824,0.01427380001405254,0.01427380001405254,0.019940199970733374,0.05455870000878349,0.06152799999108538,0.10318009997718036,0.11012580001261085,1.0129034999990836,1446.3074064999819,1450.0503210999887,,,,,,,,,,,,,,,,,,,,,,,,,,,,,20,B,2023-12-11_17h50.54.148,gca_avoidance_task,2022.2.4,143.93770371644501,
positions.xlsx,stimuli.xlsx,stimuli/Social2.png,stimuli/Social1.png,stimuli/Nonsocial1.png,stimuli/Nonsocial2.png,,"(0.7, -0.5)",cs_plus_ns,,,,,0,0,0,0,,,,,,,,,2,8,40,11,,,,,,,,,,,,,,,,,,,,,,,,,,,,,,,,,,,,,,,,,,,,,,,,,,,,,,,,,,1450.5571883000084,1452.05018999998,1450.0503210999887,1452.05018999998,1452.05018999998,1452.05018999998,0.006817700050305575,0.013327500026207417,180,shock,1,[0.23650719999568537],[0.2365111000253819],1452.2932465000194,1452.2932465000194,0.00791919999755919,0.00791919999755919,0.0183186000213027,0.05300100002204999,0.059952199982944876,0.10158610000507906,0.10858529998222366,1.004335000005085,1455.7861673000152,1459.62634409999,,,,,,,,,,,,,,,,,,,,,,,,,,,,,20,B,2023-12-11_17h50.54.148,gca_avoidance_task,2022.2.4,143.93770371644501,
positions.xlsx,stimuli.xlsx,stimuli/Social2.png,stimuli/Social1.png,stimuli/Nonsocial1.png,stimuli/Nonsocial2.png,,"(0.7, -0.5)",cs_plus_s,,,,,0,0,0,0,,,,,,,,,2,9,41,3,,,,,,,,,,,,,,,,,,,,,,,,,,,,,,,,,,,,,,,,,,,,,,,,,,,,,,,,,,1460.1331881000078,1462.022033700021,1459.62634409999,1462.022033700021,1462.022033700021,1462.022033700021,0.0063596999971196055,0.013108200044371188,180,none,0,,,1467.0288057000143,1467.0288057000143,0.013260300038382411,0.013260300038382411,0.019887100032065064,0.05449070001486689,0.061466500046662986,0.10315610002726316,0.11008290003519505,1.0128258999902755,1470.5217421000125,1474.9451755000046,,,,,,,,,,,,,,,,,,,,,,,,,,,,,20,B,2023-12-11_17h50.54.148,gca_avoidance_task,2022.2.4,143.93770371644501,
positions.xlsx,stimuli.xlsx,stimuli/Social2.png,stimuli/Social1.png,stimuli/Nonsocial1.png,stimuli/Nonsocial2.png,,"(-0.7, 0.5)",cs_plus_s,,,,,0,0,0,0,,,,,,,,,2,10,42,0,,,,,,,,,,,,,,,,,,,,,,,,,,,,,,,,,,,,,,,,,,,,,,,,,,,,,,,,,,1475.452089999977,1477.4520057999762,1474.9451755000046,1477.4520057999762,1477.4520057999762,1477.4520057999762,0.0065528000122867525,0.013298600038979203,180,none,0,,,1482.45876519999,1482.45876519999,0.013302100007422268,0.013302100007422268,0.020087000040803105,0.05466190003789961,0.06163000001106411,0.10333870002068579,0.11028269998496398,1.0129994000308216,1485.9516732000047,1490.0626641000272,,,,,,,,,,,,,,,,,,,,,,,,,,,,,20,B,2023-12-11_17h50.54.148,gca_avoidance_task,2022.2.4,143.93770371644501,
positions.xlsx,stimuli.xlsx,stimuli/Social2.png,stimuli/Social1.png,stimuli/Nonsocial1.png,stimuli/Nonsocial2.png,,"(0.7, -0.5)",cs_minus_s,,,,,0,0,0,0,,,,,,,,,2,11,43,7,,,,,,,,,,,,,,,,,,,,,,,,,,,,,,,,,,,,,,,,,,,,,,,,,,,,,,,,,,1490.5695240999921,1492.215325600002,1490.0626641000272,1492.215325600002,1492.215325600002,1492.215325600002,0.006127900036517531,0.01354500005254522,185,reward,1,[0.5559178000548854],[0.5559212000225671],1492.777773000009,1492.777773000009,0.006716499978210777,0.006716499978210777,0.018576000002212822,0.05327570001827553,0.06024530000286177,0.10193180001806468,0.10890009999275208,1.0046587999677286,1496.2707805000246,1500.180310100026,,,,,,,,,,,,,,,,,,,,,,,,,,,,,20,B,2023-12-11_17h50.54.148,gca_avoidance_task,2022.2.4,143.93770371644501,
positions.xlsx,stimuli.xlsx,stimuli/Social2.png,stimuli/Social1.png,stimuli/Nonsocial1.png,stimuli/Nonsocial2.png,,"(0.7, 0.5)",cs_plus_s,,,,,0,0,0,0,,,,,,,,,2,12,44,2,,,,,,,,,,,,,,,,,,,,,,,,,,,,,,,,,,,,,,,,,,,,,,,,,,,,,,,,,,1500.6871873000055,1502.2357514000032,1500.180310100026,1502.2357514000032,1502.2357514000032,1502.2357514000032,0.005844999977853149,0.01340549997985363,185,none,0,,,1507.2425181000144,1507.2425181000144,0.013373699970543385,0.013373699970543385,0.02021819999208674,0.05480779998470098,0.06179419998079538,0.1034370000124909,0.1104355999850668,1.0131117000128143,1510.7354612000054,1514.2908374000108,,,,,,,,,,,,,,,,,,,,,,,,,,,,,20,B,2023-12-11_17h50.54.148,gca_avoidance_task,2022.2.4,143.93770371644501,
positions.xlsx,stimuli.xlsx,stimuli/Social2.png,stimuli/Social1.png,stimuli/Nonsocial1.png,stimuli/Nonsocial2.png,,"(-0.7, -0.5)",cs_minus_s,,,,,0,0,0,0,,,,,,,,,2,13,45,5,,,,,,,,,,,,,,,,,,,,,,,,,,,,,,,,,,,,,,,,,,,,,,,,,,,,,,,,,,1514.79777439998,1516.5129914999707,1514.2908374000108,1516.5129914999707,1516.5129914999707,1516.5129914999707,0.00563610001699999,0.012905000010505319,190,reward,1,[0.49993210000684485],[0.5069622999872081],1517.0268322000047,1517.0268322000047,0.006986199994571507,0.006986199994571507,0.018136899976525456,0.05289440002525225,0.05982299998868257,0.10145830002147704,0.10836820001713932,1.0041701999725774,1520.519826999982,1524.200196699996,,,,,,,,,,,,,,,,,,,,,,,,,,,,,20,B,2023-12-11_17h50.54.148,gca_avoidance_task,2022.2.4,143.93770371644501,
positions.xlsx,stimuli.xlsx,stimuli/Social2.png,stimuli/Social1.png,stimuli/Nonsocial1.png,stimuli/Nonsocial2.png,,"(-0.7, -0.5)",cs_minus_ns,,,,,0,0,0,0,,,,,,,,,2,14,46,13,,,,,,,,,,,,,,,,,,,,,,,,,,,,,,,,,,,,,,,,,,,,,,,,,,,,,,,,,,1524.707051299978,1526.1098121000105,1524.200196699996,1526.1098121000105,1526.1098121000105,1526.1098121000105,0.0063487000297755,0.013093699992168695,195,reward,1,[0.7222838000161573],[0.7222875999868847],1526.8389891000115,1526.8389891000115,0.007764899986796081,0.007764899986796081,0.01869810000061989,0.05343849997734651,0.060328699997626245,0.10193170001730323,0.10893139999825507,1.0046896999701858,1530.3319309999933,1534.4706643000245,,,,,,,,,,,,,,,,,,,,,,,,,,,,,20,B,2023-12-11_17h50.54.148,gca_avoidance_task,2022.2.4,143.93770371644501,
positions.xlsx,stimuli.xlsx,stimuli/Social2.png,stimuli/Social1.png,stimuli/Nonsocial1.png,stimuli/Nonsocial2.png,,"(-0.7, 0.5)",cs_minus_ns,,,,,0,0,0,0,,,,,,,,,2,15,47,12,,,,,,,,,,,,,,,,,,,,,,,,,,,,,,,,,,,,,,,,,,,,,,,,,,,,,,,,,,1534.9775203000172,1536.7205426999717,1534.4706643000245,1536.7205426999717,1536.7205426999717,1536.7205426999717,0.008754300011787564,0.013078899995889515,200,reward,1,[0.6043287999927998],[0.6043326000217348],1537.3316006999812,1537.3316006999812,0.007687000033911318,0.007687000033911318,0.018087800010107458,0.05273530003614724,0.05970119999255985,0.10133159998804331,0.10830670001450926,1.0040716000366956,1540.82458830002,1544.7340919999988,,,,,,,,,,,,,,,,,,,,,,,,,,,,,20,B,2023-12-11_17h50.54.148,gca_avoidance_task,2022.2.4,143.93770371644501,
positions.xlsx,stimuli.xlsx,stimuli/Social2.png,stimuli/Social1.png,stimuli/Nonsocial1.png,stimuli/Nonsocial2.png,,"(0.7, -0.5)",cs_plus_s,,,,,0,0,0,0,,,,,,,,,3,0,48,3,,,,,,,,,,,,,,,,,,,,,,,,,,,,,,,,,,,,,,,,,,,,,,,,,,,,,,,,,,1545.241002099996,1546.296527599974,1544.7340919999988,1546.296527599974,1546.296527599974,1546.296527599974,0.006032399949617684,0.013161399983800948,200,none,0,,,1551.3033090999816,1551.3033090999816,0.013316800002939999,0.013316800002939999,0.01990229997318238,0.05463599995709956,0.061506400001235306,0.10318209999240935,0.11013529996853322,1.0128379999659956,1554.7962489000056,1558.6086020999937,,,,,,,,,,,,,,,,,,,,,,,,,,,,,20,B,2023-12-11_17h50.54.148,gca_avoidance_task,2022.2.4,143.93770371644501,
positions.xlsx,stimuli.xlsx,stimuli/Social2.png,stimuli/Social1.png,stimuli/Nonsocial1.png,stimuli/Nonsocial2.png,,"(-0.7, -0.5)",cs_plus_ns,,,,,0,0,0,0,,,,,,,,,3,1,49,9,,,,,,,,,,,,,,,,,,,,,,,,,,,,,,,,,,,,,,,,,,,,,,,,,,,,,,,,,,1559.1154866999714,1561.0528913000016,1558.6086020999937,1561.0528913000016,1561.0528913000016,1561.0528913000016,0.007180300017353147,0.012929000018630177,200,none,0,,,1566.0596508000162,1566.0596508000162,0.013748599973041564,0.013748599973041564,0.019690999994054437,0.05431300000054762,0.061282699985895306,0.103002900024876,0.10988080000970513,1.0126246999716386,1569.5526214999845,1573.1913309000083,,,,,,,,,,,,,,,,,,,,,,,,,,,,,20,B,2023-12-11_17h50.54.148,gca_avoidance_task,2022.2.4,143.93770371644501,
positions.xlsx,stimuli.xlsx,stimuli/Social2.png,stimuli/Social1.png,stimuli/Nonsocial1.png,stimuli/Nonsocial2.png,,"(0.7, 0.5)",cs_minus_ns,,,,,0,0,0,0,,,,,,,,,3,2,50,14,,,,,,,,,,,,,,,,,,,,,,,,,,,,,,,,,,,,,,,,,,,,,,,,,,,,,,,,,,1573.6982558000018,1575.0315369999735,1573.1913309000083,1575.0315369999735,1575.0315369999735,1575.0315369999735,0.006517799978610128,0.012985199980903417,205,reward,1,[0.6180317999678664],[0.6180355999968015],1575.6564961000113,1575.6564961000113,0.00779619999229908,0.00779619999229908,0.01840920001268387,0.05310660001123324,0.06008480000309646,0.10168310004519299,0.10864450002554804,1.004474300018046,1579.1494622000027,1583.440945499984,,,,,,,,,,,,,,,,,,,,,,,,,,,,,20,B,2023-12-11_17h50.54.148,gca_avoidance_task,2022.2.4,143.93770371644501,
positions.xlsx,stimuli.xlsx,stimuli/Social2.png,stimuli/Social1.png,stimuli/Nonsocial1.png,stimuli/Nonsocial2.png,,"(0.7, 0.5)",cs_plus_s,,,,,0,0,0,0,,,,,,,,,3,3,51,2,,,,,,,,,,,,,,,,,,,,,,,,,,,,,,,,,,,,,,,,,,,,,,,,,,,,,,,,,,1583.947818399989,1585.3645027999883,1583.440945499984,1585.3645027999883,1585.3645027999883,1585.3645027999883,0.005996600026264787,0.013521799992304295,205,none,0,,,1590.3712126999744,1590.3712126999744,0.013745400006882846,0.013745400006882846,0.020261300029233098,0.05490990000544116,0.061902099987491965,0.10354590002680197,0.11045119998743758,1.0132196000195108,1593.8641250000219,1597.926465000026,,,,,,,,,,,,,,,,,,,,,,,,,,,,,20,B,2023-12-11_17h50.54.148,gca_avoidance_task,2022.2.4,143.93770371644501,
positions.xlsx,stimuli.xlsx,stimuli/Social2.png,stimuli/Social1.png,stimuli/Nonsocial1.png,stimuli/Nonsocial2.png,,"(-0.7, -0.5)",cs_minus_ns,,,,,0,0,0,0,,,,,,,,,3,4,52,13,,,,,,,,,,,,,,,,,,,,,,,,,,,,,,,,,,,,,,,,,,,,,,,,,,,,,,,,,,1598.433350300009,1600.3013509999728,1597.926465000026,1600.3013509999728,1600.3013509999728,1600.3013509999728,0.006815700035076588,0.013354299997445196,210,reward,1,[0.6321923000505194],[0.6321959000197239],1600.9402277999907,1600.9402277999907,0.00773110002046451,0.00773110002046451,0.018378200009465218,0.0531611000187695,0.060070900013670325,0.10169060004409403,0.10863050003536046,1.0044182000565343,1604.433242900006,1607.988592299982,,,,,,,,,,,,,,,,,,,,,,,,,,,,,20,B,2023-12-11_17h50.54.148,gca_avoidance_task,2022.2.4,143.93770371644501,
positions.xlsx,stimuli.xlsx,stimuli/Social2.png,stimuli/Social1.png,stimuli/Nonsocial1.png,stimuli/Nonsocial2.png,,"(-0.7, 0.5)",cs_minus_ns,,,,,0,0,0,0,,,,,,,,,3,5,53,12,,,,,,,,,,,,,,,,,,,,,,,,,,,,,,,,,,,,,,,,,,,,,,,,,,,,,,,,,,1608.49548089999,1609.8079140000045,1607.988592299982,1609.8079140000045,1609.8079140000045,1609.8079140000045,0.006287999975029379,0.01336550002451986,215,reward,1,[0.5491021000198089],[0.5491063999943435],1610.3635183000006,1610.3635183000006,0.007280799967702478,0.007280799967702478,0.018446500005666167,0.053055399970617145,0.06006859999615699,0.10170820000348613,0.10865919996285811,1.0044753999682143,1613.856455000001,1618.0021006999887,,,,,,,,,,,,,,,,,,,,,,,,,,,,,20,B,2023-12-11_17h50.54.148,gca_avoidance_task,2022.2.4,143.93770371644501,
positions.xlsx,stimuli.xlsx,stimuli/Social2.png,stimuli/Social1.png,stimuli/Nonsocial1.png,stimuli/Nonsocial2.png,,"(0.7, 0.5)",cs_minus_s,,,,,0,0,0,0,,,,,,,,,3,6,54,6,,,,,,,,,,,,,,,,,,,,,,,,,,,,,,,,,,,,,,,,,,,,,,,,,,,,,,,,,,1618.5090021999786,1620.1130877999822,1618.0021006999887,1620.1130877999822,1620.1130877999822,1620.1130877999822,0.0060391000006347895,0.013486000010743737,220,reward,1,[0.5838063000119291],[0.5838102999841794],1620.7033477000077,1620.7033477000077,0.006694399984553456,0.006694399984553456,0.018497099983505905,0.05314470001030713,0.06009799998719245,0.10183170001255348,0.10874009999679402,1.0044941999949515,1624.1962973999907,1628.6614303999813,,,,,,,,,,,,,,,,,,,,,,,,,,,,,20,B,2023-12-11_17h50.54.148,gca_avoidance_task,2022.2.4,143.93770371644501,
positions.xlsx,stimuli.xlsx,stimuli/Social2.png,stimuli/Social1.png,stimuli/Nonsocial1.png,stimuli/Nonsocial2.png,,"(-0.7, -0.5)",cs_plus_s,,,,,0,0,0,0,,,,,,,,,3,7,55,1,,,,,,,,,,,,,,,,,,,,,,,,,,,,,,,,,,,,,,,,,,,,,,,,,,,,,,,,,,1629.1682944999775,1630.4390878999839,1628.6614303999813,1630.4390878999839,1630.4390878999839,1630.4390878999839,0.005782799969892949,0.013472499966155738,220,none,0,,,1635.4458551999996,1635.4458551999996,0.013540099957026541,0.013540099957026541,0.0202846999745816,0.05487439996795729,0.061908199975732714,0.10349349997704849,0.11048689996823668,1.0132477000006475,1638.9387615000014,1642.910874299996,,,,,,,,,,,,,,,,,,,,,,,,,,,,,20,B,2023-12-11_17h50.54.148,gca_avoidance_task,2022.2.4,143.93770371644501,
positions.xlsx,stimuli.xlsx,stimuli/Social2.png,stimuli/Social1.png,stimuli/Nonsocial1.png,stimuli/Nonsocial2.png,,"(-0.7, 0.5)",cs_plus_s,,,,,0,0,0,0,,,,,,,,,3,8,56,0,,,,,,,,,,,,,,,,,,,,,,,,,,,,,,,,,,,,,,,,,,,,,,,,,,,,,,,,,,1643.417749300017,1645.014933999977,1642.910874299996,1645.014933999977,1645.014933999977,1645.014933999977,0.006181100034154952,0.013211700017563999,220,none,0,,,1650.0216908999719,1650.0216908999719,0.013407599995844066,0.013407599995844066,0.019938300014473498,0.05456200003391132,0.06156170001486316,0.10323670000070706,0.11018630000762641,1.0129212000174448,1653.5145964000258,1657.965806399996,,,,,,,,,,,,,,,,,,,,,,,,,,,,,20,B,2023-12-11_17h50.54.148,gca_avoidance_task,2022.2.4,143.93770371644501,
positions.xlsx,stimuli.xlsx,stimuli/Social2.png,stimuli/Social1.png,stimuli/Nonsocial1.png,stimuli/Nonsocial2.png,,"(0.7, -0.5)",cs_minus_ns,,,,,0,0,0,0,,,,,,,,,3,9,57,15,,,,,,,,,,,,,,,,,,,,,,,,,,,,,,,,,,,,,,,,,,,,,,,,,,,,,,,,,,1658.4727229999844,1660.3268167999922,1657.965806399996,1660.3268167999922,1660.3268167999922,1660.3268167999922,0.006784900033380836,0.013357800024095923,225,reward,1,[0.5212537000188604],[0.521257400047034],1660.8545912000118,1660.8545912000118,0.008951499999966472,0.008951499999966472,0.018427900038659573,0.05307369999354705,0.060106399992946535,0.10167120001278818,0.10867879999568686,1.0044757000287063,1664.3475358000142,1668.3890597000136,,,,,,,,,,,,,,,,,,,,,,,,,,,,,20,B,2023-12-11_17h50.54.148,gca_avoidance_task,2022.2.4,143.93770371644501,
positions.xlsx,stimuli.xlsx,stimuli/Social2.png,stimuli/Social1.png,stimuli/Nonsocial1.png,stimuli/Nonsocial2.png,,"(-0.7, 0.5)",cs_plus_ns,,,,,0,0,0,0,,,,,,,,,3,10,58,8,,,,,,,,,,,,,,,,,,,,,,,,,,,,,,,,,,,,,,,,,,,,,,,,,,,,,,,,,,1668.8959402000182,1670.763901599974,1668.3890597000136,1670.763901599974,1670.763901599974,1670.763901599974,0.006442099984269589,0.013096300011966377,225,none,0,,,1675.7706507000257,1675.7706507000257,0.013821100001223385,0.013821100001223385,0.01987870002631098,0.05455000000074506,0.061524200020357966,0.10317170002963394,0.1101135999779217,1.0128414999926463,1679.2636153000058,1683.367619000026,,,,,,,,,,,,,,,,,,,,,,,,,,,,,20,B,2023-12-11_17h50.54.148,gca_avoidance_task,2022.2.4,143.93770371644501,
positions.xlsx,stimuli.xlsx,stimuli/Social2.png,stimuli/Social1.png,stimuli/Nonsocial1.png,stimuli/Nonsocial2.png,,"(0.7, -0.5)",cs_plus_ns,,,,,0,0,0,0,,,,,,,,,3,11,59,11,,,,,,,,,,,,,,,,,,,,,,,,,,,,,,,,,,,,,,,,,,,,,,,,,,,,,,,,,,1683.8745155999786,1685.8466719000135,1683.367619000026,1685.8466719000135,1685.8466719000135,1685.8466719000135,0.006462400022428483,0.013438699999824166,225,none,0,,,1690.8533941999776,1690.8533941999776,0.015053900016937405,0.015053900016937405,0.020169900031760335,0.05484569998225197,0.06184640002902597,0.10347650002222508,0.11044660001061857,1.0131630999967456,1694.3463842999772,1697.9573192999815,,,,,,,,,,,,,,,,,,,,,,,,,,,,,20,B,2023-12-11_17h50.54.148,gca_avoidance_task,2022.2.4,143.93770371644501,
positions.xlsx,stimuli.xlsx,stimuli/Social2.png,stimuli/Social1.png,stimuli/Nonsocial1.png,stimuli/Nonsocial2.png,,"(-0.7, -0.5)",cs_minus_s,,,,,0,0,0,0,,,,,,,,,3,12,60,5,,,,,,,,,,,,,,,,,,,,,,,,,,,,,,,,,,,,,,,,,,,,,,,,,,,,,,,,,,1698.4642034000135,1699.8530442999909,1697.9573192999815,1699.8530442999909,1699.8530442999909,1699.8530442999909,0.006346000009216368,0.013232500001322478,230,reward,1,[0.4724685999681242],[0.47247219999553636],1700.332227099978,1700.332227099978,0.006896000006236136,0.006896000006236136,0.01884749997407198,0.05346779996762052,0.06043119996320456,0.10203379997983575,0.10898679995443672,1.0048806999693625,1703.8251859999727,1708.1375042999862,,,,,,,,,,,,,,,,,,,,,,,,,,,,,20,B,2023-12-11_17h50.54.148,gca_avoidance_task,2022.2.4,143.93770371644501,
positions.xlsx,stimuli.xlsx,stimuli/Social2.png,stimuli/Social1.png,stimuli/Nonsocial1.png,stimuli/Nonsocial2.png,,"(0.7, -0.5)",cs_minus_s,,,,,0,0,0,0,,,,,,,,,3,13,61,7,,,,,,,,,,,,,,,,,,,,,,,,,,,,,,,,,,,,,,,,,,,,,,,,,,,,,,,,,,1708.6443818000262,1709.9707143999985,1708.1375042999862,1709.9707143999985,1709.9707143999985,1709.9707143999985,0.005877999996300787,0.013428399979602545,235,reward,1,[0.5632589999586344],[0.563262699986808],1710.5401267000125,1710.5401267000125,0.007109199999831617,0.007109199999831617,0.01826360000995919,0.05293080001138151,0.05984530004207045,0.10151070001302287,0.10844330000691116,1.0042642000480555,1714.033057899971,1718.1162344000186,,,,,,,,,,,,,,,,,,,,,,,,,,,,,20,B,2023-12-11_17h50.54.148,gca_avoidance_task,2022.2.4,143.93770371644501,
positions.xlsx,stimuli.xlsx,stimuli/Social2.png,stimuli/Social1.png,stimuli/Nonsocial1.png,stimuli/Nonsocial2.png,,"(0.7, 0.5)",cs_plus_ns,,,,,0,0,0,0,,,,,,,,,3,14,62,10,,,,,,,,,,,,,,,,,,,,,,,,,,,,,,,,,,,,,,,,,,,,,,,,,,,,,,,,,,1718.623121600016,1719.8939335999894,1718.1162344000186,1719.8939335999894,1719.8939335999894,1719.8939335999894,0.006598600011784583,0.013053200033027679,235,none,0,,,1724.9076307999785,1724.9076307999785,0.0142976000206545,0.0142976000206545,0.026731800055131316,0.054446900030598044,0.061435800045728683,0.103070100012701,0.11006160004762933,1.0127504999982193,1728.3936699000187,1732.1782386000268,,,,,,,,,,,,,,,,,,,,,,,,,,,,,20,B,2023-12-11_17h50.54.148,gca_avoidance_task,2022.2.4,143.93770371644501,
positions.xlsx,stimuli.xlsx,stimuli/Social2.png,stimuli/Social1.png,stimuli/Nonsocial1.png,stimuli/Nonsocial2.png,,"(-0.7, 0.5)",cs_minus_s,,,,,0,0,0,0,,,,,,,,,3,15,63,4,,,,,,,,,,,,,,,,,,,,,,,,,,,,,,,,,,,,,,,,,,,,,,,,,,,,,,,,,,1732.6850962999742,1734.1086553999921,1732.1782386000268,1734.1086553999921,1734.1086553999921,1734.1086553999921,0.005877099989447743,0.013102099997922778,240,reward,1,[0.5765640999889001],[0.5765810000011697],1734.6919816000154,1734.6919816000154,0.007245800050441176,0.007245800050441176,0.01820780005073175,0.05282720003742725,0.05983040004502982,0.10143350000726059,0.10842250002315268,1.0042047000024468,1738.184956400015,1741.837572599994,,,,,,,,,,,,,,,,,,,,,,,,,,,,,20,B,2023-12-11_17h50.54.148,gca_avoidance_task,2022.2.4,143.93770371644501,
positions.xlsx,stimuli.xlsx,stimuli/Social2.png,stimuli/Social1.png,stimuli/Nonsocial1.png,stimuli/Nonsocial2.png,,"(-0.7, -0.5)",cs_minus_s,,,,,0,0,0,0,,,,,,,,,4,0,64,5,,,,,,,,,,,,,,,,,,,,,,,,,,,,,,,,,,,,,,,,,,,,,,,,,,,,,,,,,,1742.3444195999764,1743.6568891999777,1741.837572599994,1743.6568891999777,1743.6568891999777,1743.6568891999777,0.006308300013188273,0.013039999990724027,245,reward,1,[0.5070259000058286],[0.5070295999757946],1744.1707963999943,1744.1707963999943,0.007435100036673248,0.007435100036673248,0.01845510001294315,0.05311380000784993,0.060133300023153424,0.10175940004410222,0.10869870003079996,1.0044497000053525,1747.663721400022,1751.781654899998,,,,,,,,,,,,,,,,,,,,,,,,,,,,,20,B,2023-12-11_17h50.54.148,gca_avoidance_task,2022.2.4,143.93770371644501,
positions.xlsx,stimuli.xlsx,stimuli/Social2.png,stimuli/Social1.png,stimuli/Nonsocial1.png,stimuli/Nonsocial2.png,,"(0.7, -0.5)",cs_minus_ns,,,,,0,0,0,0,,,,,,,,,4,1,65,15,,,,,,,,,,,,,,,,,,,,,,,,,,,,,,,,,,,,,,,,,,,,,,,,,,,,,,,,,,1752.2885179999867,1753.5315202000202,1751.781654899998,1753.5315202000202,1753.5315202000202,1753.5315202000202,0.006236499990336597,0.013107499980833381,250,reward,1,[0.6738206999725662],[0.6738242999999784],1754.2120940000168,1754.2120940000168,0.007469399948604405,0.007469399948604405,0.018395999970380217,0.05303789995377883,0.05998069996712729,0.10168419999536127,0.1085925999796018,1.0043826999608427,1757.7050188999856,1761.607657000015,,,,,,,,,,,,,,,,,,,,,,,,,,,,,20,B,2023-12-11_17h50.54.148,gca_avoidance_task,2022.2.4,143.93770371644501,
positions.xlsx,stimuli.xlsx,stimuli/Social2.png,stimuli/Social1.png,stimuli/Nonsocial1.png,stimuli/Nonsocial2.png,,"(-0.7, -0.5)",cs_plus_s,,,,,0,0,0,0,,,,,,,,,4,2,66,1,,,,,,,,,,,,,,,,,,,,,,,,,,,,,,,,,,,,,,,,,,,,,,,,,,,,,,,,,,1762.1145890000043,1763.8991752999718,1761.607657000015,1763.8991752999718,1763.8991752999718,1763.8991752999718,0.005758600018452853,0.013113300024997443,250,none,0,,,1768.9059225000092,1768.9059225000092,0.013352500041946769,0.013352500041946769,0.01991130004171282,0.05461810005363077,0.061560100002679974,0.1031901000533253,0.11015520000364631,1.0128796000499278,1772.398850700003,1776.690386399976,,,,,,,,,,,,,,,,,,,,,,,,,,,,,20,B,2023-12-11_17h50.54.148,gca_avoidance_task,2022.2.4,143.93770371644501,
positions.xlsx,stimuli.xlsx,stimuli/Social2.png,stimuli/Social1.png,stimuli/Nonsocial1.png,stimuli/Nonsocial2.png,,"(0.7, 0.5)",cs_minus_s,,,,,0,0,0,0,,,,,,,,,4,3,67,6,,,,,,,,,,,,,,,,,,,,,,,,,,,,,,,,,,,,,,,,,,,,,,,,,,,,,,,,,,1777.1972880000249,1778.6555427000276,1776.690386399976,1778.6555427000276,1778.6555427000276,1778.6555427000276,0.00640489999204874,0.013341000012587756,255,reward,1,[0.5213030999875627],[0.5213069000164978],1779.1833092999877,1779.1833092999877,0.008174199960194528,0.008174199960194528,0.018297299975529313,0.05295649997424334,0.05993549997219816,0.10161149996565655,0.10858349996851757,1.0043355000088923,1782.67630739999,1786.6899978999863,,,,,,,,,,,,,,,,,,,,,,,,,,,,,20,B,2023-12-11_17h50.54.148,gca_avoidance_task,2022.2.4,143.93770371644501,
