posFile,stimFile,cs_plus_s,cs_minus_s,cs_plus_ns,cs_minus_ns,stimtype,position,trialtype,trials_threshold.thisRepN,trials_threshold.thisTrialN,trials_threshold.thisN,trials_threshold.thisIndex,blocks.thisRepN,blocks.thisTrialN,blocks.thisN,blocks.thisIndex,ratingtrials1.thisRepN,ratingtrials1.thisTrialN,ratingtrials1.thisN,ratingtrials1.thisIndex,learning_trials.thisRepN,learning_trials.thisTrialN,learning_trials.thisN,learning_trials.thisIndex,trials.thisRepN,trials.thisTrialN,trials.thisN,trials.thisIndex,ratingtrials2.thisRepN,ratingtrials2.thisTrialN,ratingtrials2.thisN,ratingtrials2.thisIndex,testtrials.thisRepN,testtrials.thisTrialN,testtrials.thisN,testtrials.thisIndex,ratingtrials3.thisRepN,ratingtrials3.thisTrialN,ratingtrials3.thisN,ratingtrials3.thisIndex,textStart.started,spaceStart.started,spaceStart.keys,spaceStart.rt,textPainThreshold.started,spacePainThreshold.started,spacePainThreshold.keys,spacePainThreshold.rt,textRateT.started,text_noPainT.started,text_slightPainT.started,text_highPainT.started,sliderPainT.started,keys_PainT.started,sliderPainT.response,sliderPainT.rt,keys_PainT.keys,keys_PainT.rt,fixcrossT.started,portShock1T.started,portShock1T.stopped,portShock2T.started,portShock2T.stopped,portShock3T.started,portShock3T.stopped,fixcrossT.stopped,text_ETCalibration.started,spaceETCalibration.started,spaceETCalibration.keys,spaceETCalibration.rt,textStartExp.started,spaceStartExp.started,spaceStartExp.keys,spaceStartExp.rt,imageRating.started,sliderStim.started,spaceStim.started,sliderStim.response,sliderStim.rt,spaceStim.keys,spaceStim.rt,textStartTask.started,spaceStartTask.started,spaceStartTask.keys,spaceStartTask.rt,blankScreen.started,blankScreen.stopped,fixcross.started,image.started,roi.started,gazeCursor.started,portImage.started,portImage.stopped,score,outcome,roi.numLooks,roi.timesOn,roi.timesOff,imageFeedback.started,gazeCursor_Feedback.started,soundFeedback.started,portShock1.started,portShock1.stopped,portShock2.started,portShock2.stopped,portShock3.started,portShock3.stopped,soundFeedback.stopped,fixcrossE.started,fixcrossE.stopped,textRepeatTask.started,textboxRepeatInstruction.started,textRepeatSpace.started,spaceRepeatTask.started,spaceRepeatTask.keys,spaceRepeatTask.rt,textRate.started,text_noPain.started,text_slightPain.started,text_highPain.started,sliderPain.started,textSpacePain.started,spacePain.started,sliderPain.response,sliderPain.rt,spacePain.keys,spacePain.rt,textTestInstr.started,spaceTestInstr.started,spaceTestInstr.keys,spaceTestInstr.rt,imageTest.started,roiTest.started,portTestImage.started,portTestImage.stopped,roiTest.numLooks,roiTest.timesOn,roiTest.timesOff,participant,group,date,expName,psychopyVersion,frameRate,
,,,,,,,,,,,,,,,,,,,,,,,,,,,,,,,,,,,,,,,,,24.866734900002484,24.866734900002484,space,2.021898799997871,,,,,,,,,,,,,,,,,,,,,,,,,,,,,,,,,,,,,,,,,,,,,,,,,,,,,,,,,,,,,,,,,,,,,,,,,,,,,,,,,,,,,,,,,,,,,,,15,C,2023-12-08_16h49.07.936,gca_avoidance_task,2022.2.4,143.72214485093292,
,,,,,,,,,,,,,,,,,,,,,,,,,,,,,,,,,,,,,,,,,,,,,26.90134379999654,26.90134379999654,space,1.482063499992364,,,,,,,,,,,,,,,,,,,,,,,,,,,,,,,,,,,,,,,,,,,,,,,,,,,,,,,,,,,,,,,,,,,,,,,,,,,,,,,,,,,,,,,,,,,15,C,2023-12-08_16h49.07.936,gca_avoidance_task,2022.2.4,143.72214485093292,
,,,,,,,,,0,0,0,0,,,,,,,,,,,,,,,,,,,,,,,,,,,,,,,,,,,,,29.436002800008282,29.436002800008282,29.436002800008282,29.436002800008282,29.436002800008282,29.436002800008282,None,None,s,16.115685200013104,46.15057739999611,0.1023711000016192,0.10932620000676252,0.15102590000606142,0.15799259999766946,0.19958760000008624,0.20655109999643173,46.90750760000083,,,,,,,,,,,,,,,,,,,,,,,,,,,,,,,,,,,,,,,,,,,,,,,,,,,,,,,,,,,,,,,,,,,,,,,,,15,C,2023-12-08_16h49.07.936,gca_avoidance_task,2022.2.4,143.72214485093292,
,,,,,,,,,1,0,1,0,,,,,,,,,,,,,,,,,,,,,,,,,,,,,,,,,,,,,46.90750760000083,46.90750760000083,46.90750760000083,46.90750760000083,46.90750760000083,46.90750760000083,1.0,7.559286699994118,s,12.644058699996094,60.19860920000065,0.10245839999697637,0.10940770000161137,0.1510573999985354,0.15802620000613388,0.1996862000087276,0.20667500000854488,60.962484000003315,,,,,,,,,,,,,,,,,,,,,,,,,,,,,,,,,,,,,,,,,,,,,,,,,,,,,,,,,,,,,,,,,,,,,,,,,15,C,2023-12-08_16h49.07.936,gca_avoidance_task,2022.2.4,143.72214485093292,
,,,,,,,,,2,0,2,0,,,,,,,,,,,,,,,,,,,,,,,,,,,,,,,,,,,,,60.962484000003315,60.962484000003315,60.962484000003315,60.962484000003315,60.962484000003315,60.962484000003315,2.0,4.097870600002352,s,8.694377699997858,70.16348689999722,0.10222729999804869,0.10915459999523591,0.150793299995712,0.15775110000686254,0.19946109999727923,0.20639390000724234,70.92736260000675,,,,,,,,,,,,,,,,,,,,,,,,,,,,,,,,,,,,,,,,,,,,,,,,,,,,,,,,,,,,,,,,,,,,,,,,,15,C,2023-12-08_16h49.07.936,gca_avoidance_task,2022.2.4,143.72214485093292,
,,,,,,,,,3,0,3,0,,,,,,,,,,,,,,,,,,,,,,,,,,,,,,,,,,,,,70.92736260000675,70.92736260000675,70.92736260000675,70.92736260000675,70.92736260000675,70.92736260000675,3.0,3.913886399997864,s,8.488151300000027,80.03813240000454,0.10050169999885838,0.10747309999715071,0.14910119998967275,0.15600899999844842,0.20461209998757113,0.2115644000004977,80.79500270000426,,,,,,,,,,,,,,,,,,,,,,,,,,,,,,,,,,,,,,,,,,,,,,,,,,,,,,,,,,,,,,,,,,,,,,,,,15,C,2023-12-08_16h49.07.936,gca_avoidance_task,2022.2.4,143.72214485093292,
,,,,,,,,,4,0,4,0,,,,,,,,,,,,,,,,,,,,,,,,,,,,,,,,,,,,,80.79500270000426,80.79500270000426,80.79500270000426,80.79500270000426,80.79500270000426,80.79500270000426,4.0,1.8202760000131093,s,6.645099699991988,87.9475092000066,0.10404410000774078,0.11098959999799263,0.15266030000930186,0.15961280000919942,0.20126230000460055,0.2082522999990033,88.70444390000193,,,,,,,,,,,,,,,,,,,,,,,,,,,,,,,,,,,,,,,,,,,,,,,,,,,,,,,,,,,,,,,,,,,,,,,,,15,C,2023-12-08_16h49.07.936,gca_avoidance_task,2022.2.4,143.72214485093292,
,,,,,,,,,5,0,5,0,,,,,,,,,,,,,,,,,,,,,,,,,,,,,,,,,,,,,88.70444390000193,88.70444390000193,88.70444390000193,88.70444390000193,88.70444390000193,88.70444390000193,6.0,2.2539097999979276,s,8.032372300003772,97.23882660000527,0.10328429999935906,0.11026950000086799,0.1518893000029493,0.15890189999481663,0.20050639999681152,0.20745309999620076,97.99577660000068,,,,,,,,,,,,,,,,,,,,,,,,,,,,,,,,,,,,,,,,,,,,,,,,,,,,,,,,,,,,,,,,,,,,,,,,,15,C,2023-12-08_16h49.07.936,gca_avoidance_task,2022.2.4,143.72214485093292,
,,,,,,,,,6,0,6,0,,,,,,,,,,,,,,,,,,,,,,,,,,,,,,,,,,,,,97.99577660000068,97.99577660000068,97.99577660000068,97.99577660000068,97.99577660000068,97.99577660000068,5.0,1.7296351000113646,s,7.483938700010185,105.98150720000558,0.10017589999188203,0.10708570000133477,0.15572029999748338,0.16263900000194553,0.20430800000031013,0.21130559999437537,106.82869059999939,,,,,,,,,,,,,,,,,,,,,,,,,,,,,,,,,,,,,,,,,,,,,,,,,,,,,,,,,,,,,,,,,,,,,,,,,15,C,2023-12-08_16h49.07.936,gca_avoidance_task,2022.2.4,143.72214485093292,
,,,,,,,,,7,0,7,0,,,,,,,,,,,,,,,,,,,,,,,,,,,,,,,,,,,,,106.82869059999939,106.82869059999939,106.82869059999939,106.82869059999939,106.82869059999939,106.82869059999939,5.0,1.3993611999903806,s,6.595459199990728,113.93954439999652,0.10434550000354648,0.11131449999811593,0.15296390000730753,0.1598731999984011,0.2015498000109801,0.20853540000098292,,,,,,,,,,,,,,,,,,,,,,,,,,,,,,,,,,,,,,,,,,,,,,,,,,,,,,,,,,,,,,,,,,,,,,,,,,15,C,2023-12-08_16h49.07.936,gca_avoidance_task,2022.2.4,143.72214485093292,
,,,,,,,,,8,0,8,0,,,,,,,,,,,,,,,,,,,,,,,,,,,,,,,,,,,,,114.69644210000115,114.69644210000115,114.69644210000115,114.69644210000115,114.69644210000115,114.69644210000115,6.0,1.4447985000006156,s,6.44024179999542,121.64061380000203,0.10273059998871759,0.10966799999005161,0.1512685999914538,0.15830289998848457,0.1998858000006294,0.20686510000086855,122.404443300009,,,,,,,,,,,,,,,,,,,,,,,,,,,,,,,,,,,,,,,,,,,,,,,,,,,,,,,,,,,,,,,,,,,,,,,,,15,C,2023-12-08_16h49.07.936,gca_avoidance_task,2022.2.4,143.72214485093292,
,,,,,,,,,9,0,9,0,,,,,,,,,,,,,,,,,,,,,,,,,,,,,,,,,,,,,122.404443300009,122.404443300009,122.404443300009,122.404443300009,122.404443300009,122.404443300009,7.0,1.395217400000547,s,5.356428300001426,128.26531650000834,0.10371580001083203,0.1106702000106452,0.15235820000816602,0.1593289000011282,0.20095430000219494,0.207889500001329,129.15422070000204,,,,,,,,,,,,,,,,,,,,,,,,,,,,,,,,,,,,,,,,,,,,,,,,,,,,,,,,,,,,,,,,,,,,,,,,,15,C,2023-12-08_16h49.07.936,gca_avoidance_task,2022.2.4,143.72214485093292,
,,,,,,,,,10,0,10,0,,,,,,,,,,,,,,,,,,,,,,,,,,,,,,,,,,,,,129.15422070000204,129.15422070000204,129.15422070000204,129.15422070000204,129.15422070000204,129.15422070000204,7.0,1.682786400007899,s,8.133534699998563,137.79274319999968,0.10476119999657385,0.11171729999477975,0.15338499999779742,0.16034409998974297,0.2020009999978356,0.20894499999121763,,,,,,,,,,,,,,,,,,,,,,,,,,,,,,,,,,,,,,,,,,,,,,,,,,,,,,,,,,,,,,,,,,,,,,,,,,15,C,2023-12-08_16h49.07.936,gca_avoidance_task,2022.2.4,143.72214485093292,
,,,,,,,,,11,0,11,0,,,,,,,,,,,,,,,,,,,,,,,,,,,,,,,,,,,,,138.55656460000318,138.55656460000318,138.55656460000318,138.55656460000318,138.55656460000318,138.55656460000318,7.0,1.737680200007162,s,6.908254100009799,145.98683530000562,0.0992547000059858,0.10615669999970123,0.15477110000210814,0.16172180000285152,0.20338819999597035,0.2103134999924805,146.74378190000425,,,,,,,,,,,,,,,,,,,,,,,,,,,,,,,,,,,,,,,,,,,,,,,,,,,,,,,,,,,,,,,,,,,,,,,,,15,C,2023-12-08_16h49.07.936,gca_avoidance_task,2022.2.4,143.72214485093292,
,,,,,,,,,12,0,12,0,,,,,,,,,,,,,,,,,,,,,,,,,,,,,,,,,,,,,146.74378190000425,146.74378190000425,146.74378190000425,146.74378190000425,146.74378190000425,146.74378190000425,6.0,1.2137395999889122,g,11.256802799995057,158.50720880000154,,,,,,,,,,,,,,,,,,,,,,,,,,,,,,,,,,,,,,,,,,,,,,,,,,,,,,,,,,,,,,,,,,,,,,,,,,,,,,,,15,C,2023-12-08_16h49.07.936,gca_avoidance_task,2022.2.4,143.72214485093292,
,,,,,,,,,,,,,,,,,,,,,,,,,,,,,,,,,,,,,,,,,,,,,,,,,,,,,,,,,,,,,,,,,,,158.50720880000154,158.50720880000154,space,2.340426499999012,,,,,,,,,,,,,,,,,,,,,,,,,,,,,,,,,,,,,,,,,,,,,,,,,,,,,,,,,,,,,,,,,,,,,15,C,2023-12-08_16h49.07.936,gca_avoidance_task,2022.2.4,143.72214485093292,
positions.xlsx,stimuli.xlsx,stimuli/Social1.png,stimuli/Social2.png,stimuli/Nonsocial2.png,stimuli/Nonsocial1.png,cs_plus_s,,,,,,,0,0,0,0,0,0,0,0,,,,,,,,,,,,,,,,,,,,,,,,,,,,,,,,,,,,,,,,,,,,,,,,,,,333.27871280000545,333.27871280000545,space,30.43301929999143,363.75593389999995,363.75593389999995,368.6653976999951,8.0,4.90447999999742,space,1.5983284000103595,,,,,,,,,,,,,,,,,,,,,,,,,,,,,,,,,,,,,,,,,,,,,,,,,,,,,,,,,,15,C,2023-12-08_16h49.07.936,gca_avoidance_task,2022.2.4,143.72214485093292,
positions.xlsx,stimuli.xlsx,stimuli/Social1.png,stimuli/Social2.png,stimuli/Nonsocial2.png,stimuli/Nonsocial1.png,cs_minus_s,,,,,,,0,0,0,0,0,1,1,2,,,,,,,,,,,,,,,,,,,,,,,,,,,,,,,,,,,,,,,,,,,,,,,,,,,,,,,370.3042451000074,370.3042451000074,372.4221947000042,7.0,2.110644400003366,space,0.9302806000050623,,,,,,,,,,,,,,,,,,,,,,,,,,,,,,,,,,,,,,,,,,,,,,,,,,,,,,,,,,15,C,2023-12-08_16h49.07.936,gca_avoidance_task,2022.2.4,143.72214485093292,
positions.xlsx,stimuli.xlsx,stimuli/Social1.png,stimuli/Social2.png,stimuli/Nonsocial2.png,stimuli/Nonsocial1.png,cs_minus_ns,,,,,,,0,0,0,0,0,2,2,3,,,,,,,,,,,,,,,,,,,,,,,,,,,,,,,,,,,,,,,,,,,,,,,,,,,,,,,373.3805113999988,373.3805113999988,376.8456370000058,4.0,3.4576737000024877,space,1.0111321000003954,,,,,,,,,,,,,,,,,,,,,,,,,,,,,,,,,,,,,,,,,,,,,,,,,,,,,,,,,,15,C,2023-12-08_16h49.07.936,gca_avoidance_task,2022.2.4,143.72214485093292,
positions.xlsx,stimuli.xlsx,stimuli/Social1.png,stimuli/Social2.png,stimuli/Nonsocial2.png,stimuli/Nonsocial1.png,cs_plus_ns,,,,,,,0,0,0,0,0,3,3,1,,,,,,,,,,,,,,,,,,,,,,,,,,,,,,,,,,,,,,,,,,,,,,,,,,,,,,,377.8872679000051,377.8872679000051,380.26912230000016,5.0,4.2161293999961345,space,3.4827766999951564,,,,,,,,,,,,,,,,,,,,,,,,,,,,,,,,,,,,,,,,,,,,,,,,,,,,,,,,,,15,C,2023-12-08_16h49.07.936,gca_avoidance_task,2022.2.4,143.72214485093292,
positions.xlsx,stimuli.xlsx,stimuli/Social1.png,stimuli/Social2.png,stimuli/Nonsocial2.png,stimuli/Nonsocial1.png,,"(-0.7, 0.5)",cs_plus_s,,,,,0,0,0,0,,,,,0,0,0,0,,,,,,,,,,,,,,,,,,,,,,,,,,,,,,,,,,,,,,,,,,,,,,,,,,,,,,,,,,383.76898380000785,383.76898380000785,space,27.071091699996032,413.74698779999744,414.94826679999824,413.2469875999959,414.94826679999824,414.94826679999824,414.94826679999824,0.014647500007413328,0.01990480000677053,0,shock,1,[0.1944880000082776],[0.19449180000810884],415.14965680000023,415.14965680000023,0.01668279999285005,0.01668279999285005,0.02522070000122767,0.05290749999403488,0.059841800000867806,0.10152869999001268,0.1084807000006549,1.0112572999933036,418.635661399996,422.704931100001,,,,,,,,,,,,,,,,,,,,,,,,,,,,,15,C,2023-12-08_16h49.07.936,gca_avoidance_task,2022.2.4,143.72214485093292,
positions.xlsx,stimuli.xlsx,stimuli/Social1.png,stimuli/Social2.png,stimuli/Nonsocial2.png,stimuli/Nonsocial1.png,,"(-0.7, 0.5)",cs_minus_ns,,,,,0,0,0,0,,,,,0,1,1,12,,,,,,,,,,,,,,,,,,,,,,,,,,,,,,,,,,,,,,,,,,,,,,,,,,,,,,,,,,,,,,423.21184180000273,425.21871349999856,422.704931100001,425.21871349999856,425.21871349999856,425.21871349999856,0.007212700002128258,,5,reward,1,[0.008386200002860278],[0.008389900001930073],425.21871349999856,425.21871349999856,0.008899099993868731,0.008899099993868731,0.024474999998346902,0.05213529999309685,0.05907209998986218,0.10073399999237154,0.10766579999472015,1.0034962999925483,428.7046962000022,433.08649620000506,,,,,,,,,,,,,,,,,,,,,,,,,,,,,15,C,2023-12-08_16h49.07.936,gca_avoidance_task,2022.2.4,143.72214485093292,
positions.xlsx,stimuli.xlsx,stimuli/Social1.png,stimuli/Social2.png,stimuli/Nonsocial2.png,stimuli/Nonsocial1.png,,"(0.7, -0.5)",cs_minus_s,,,,,0,0,0,0,,,,,0,2,2,7,,,,,,,,,,,,,,,,,,,,,,,,,,,,,,,,,,,,,,,,,,,,,,,,,,,,,,,,,,,,,,433.59336100000655,434.60721859999467,433.08649620000506,434.60721859999467,434.60721859999467,434.60721859999467,0.005965300006209873,0.012871099999756552,10,reward,1,[0.29870309999387246],[0.2987068999937037],434.9128004999948,434.9128004999948,0.007952900006785057,0.007952900006785057,0.018404800008283928,0.053040700004203245,0.05997420000494458,0.10163689999899361,0.10859230000642128,1.0043770000047516,438.40570980000484,442.5027370000025,,,,,,,,,,,,,,,,,,,,,,,,,,,,,15,C,2023-12-08_16h49.07.936,gca_avoidance_task,2022.2.4,143.72214485093292,
positions.xlsx,stimuli.xlsx,stimuli/Social1.png,stimuli/Social2.png,stimuli/Nonsocial2.png,stimuli/Nonsocial1.png,,"(0.7, -0.5)",cs_plus_ns,,,,,0,0,0,0,,,,,0,3,3,11,,,,,,,,,,,,,,,,,,,,,,,,,,,,,,,,,,,,,,,,,,,,,,,,,,,,,,,,,,,,,,443.0096504999965,444.91236149999895,442.5027370000025,444.91236149999895,444.91236149999895,444.91236149999895,0.006794899993110448,0.012941599998157471,10,shock,1,[0.2638643999962369],[0.26386779999302235],445.1832180000056,445.1832180000056,0.008653600001707673,0.008653600001707673,0.01833170000463724,0.052991600008681417,0.05998260001069866,0.10158510001201648,0.1085501000052318,1.0043386000033934,448.6761068000051,452.3635113000055,,,,,,,,,,,,,,,,,,,,,,,,,,,,,15,C,2023-12-08_16h49.07.936,gca_avoidance_task,2022.2.4,143.72214485093292,
positions.xlsx,stimuli.xlsx,stimuli/Social1.png,stimuli/Social2.png,stimuli/Nonsocial2.png,stimuli/Nonsocial1.png,,"(0.7, 0.5)",cs_plus_ns,,,,,0,0,0,0,,,,,0,4,4,10,,,,,,,,,,,,,,,,,,,,,,,,,,,,,,,,,,,,,,,,,,,,,,,,,,,,,,,,,,,,,,452.87037319999945,454.2453519999981,452.3635113000055,454.2453519999981,454.2453519999981,454.2453519999981,0.007478499988792464,0.012905299998237751,10,shock,1,[0.26363229998969473],[0.2636362999910489],454.5161525000003,454.5161525000003,0.00829929999599699,0.00829929999599699,0.018326299992622808,0.0529744999948889,0.05990150000434369,0.10156759999517817,0.10856849999981932,1.0043434999970486,458.00906720000785,462.23810740000044,,,,,,,,,,,,,,,,,,,,,,,,,,,,,15,C,2023-12-08_16h49.07.936,gca_avoidance_task,2022.2.4,143.72214485093292,
positions.xlsx,stimuli.xlsx,stimuli/Social1.png,stimuli/Social2.png,stimuli/Nonsocial2.png,stimuli/Nonsocial1.png,,"(0.7, 0.5)",cs_minus_ns,,,,,0,0,0,0,,,,,0,5,5,14,,,,,,,,,,,,,,,,,,,,,,,,,,,,,,,,,,,,,,,,,,,,,,,,,,,,,,,,,,,,,,462.7450109000056,464.272698700006,462.23810740000044,464.272698700006,464.272698700006,464.272698700006,0.00698730000294745,0.013082100005703978,15,reward,1,[0.2708987999940291],[0.2709023000061279],464.55051580000145,464.55051580000145,0.008658899998408742,0.008658899998408742,0.018620399991050363,0.0532662000041455,0.060213099990505725,0.10188469999411609,0.10881910000171047,1.0045886000007158,468.04341430000204,471.7030068000022,,,,,,,,,,,,,,,,,,,,,,,,,,,,,15,C,2023-12-08_16h49.07.936,gca_avoidance_task,2022.2.4,143.72214485093292,
positions.xlsx,stimuli.xlsx,stimuli/Social1.png,stimuli/Social2.png,stimuli/Nonsocial2.png,stimuli/Nonsocial1.png,,"(0.7, 0.5)",cs_plus_s,,,,,0,0,0,0,,,,,0,6,6,2,,,,,,,,,,,,,,,,,,,,,,,,,,,,,,,,,,,,,,,,,,,,,,,,,,,,,,,,,,,,,,472.20987310000055,473.6612404000043,471.7030068000022,473.6612404000043,473.6612404000043,473.6612404000043,0.006511600004159845,0.013180000009015203,15,shock,1,[0.1459058000036748],[0.1459093000012217],473.8139794000017,473.8139794000017,0.007289200002560392,0.007289200002560392,0.018556299997726455,0.05325779999839142,0.060218900005565956,0.10184070000832435,0.10881069999595638,1.0046047000068938,477.3070274000056,480.8276317999989,,,,,,,,,,,,,,,,,,,,,,,,,,,,,15,C,2023-12-08_16h49.07.936,gca_avoidance_task,2022.2.4,143.72214485093292,
positions.xlsx,stimuli.xlsx,stimuli/Social1.png,stimuli/Social2.png,stimuli/Nonsocial2.png,stimuli/Nonsocial1.png,,"(-0.7, 0.5)",cs_plus_ns,,,,,0,0,0,0,,,,,0,7,7,8,,,,,,,,,,,,,,,,,,,,,,,,,,,,,,,,,,,,,,,,,,,,,,,,,,,,,,,,,,,,,,481.3345294000028,482.98724820000643,480.8276317999989,482.98724820000643,482.98724820000643,482.98724820000643,0.006911100004799664,0.01306930001010187,15,shock,1,[0.15982860000804067],[0.15983250000863336],483.1539200999978,483.1539200999978,0.008735299998079427,0.008735299998079427,0.018498799996450543,0.05319720000261441,0.06017019999853801,0.10176239999418613,0.10876069999358151,1.0045437999942806,486.6468278999964,490.93834560000687,,,,,,,,,,,,,,,,,,,,,,,,,,,,,15,C,2023-12-08_16h49.07.936,gca_avoidance_task,2022.2.4,143.72214485093292,
positions.xlsx,stimuli.xlsx,stimuli/Social1.png,stimuli/Social2.png,stimuli/Nonsocial2.png,stimuli/Nonsocial1.png,,"(-0.7, -0.5)",cs_minus_ns,,,,,0,0,0,0,,,,,0,8,8,13,,,,,,,,,,,,,,,,,,,,,,,,,,,,,,,,,,,,,,,,,,,,,,,,,,,,,,,,,,,,,,491.44522380000853,492.6604632999952,490.93834560000687,492.6604632999952,492.6604632999952,492.6604632999952,0.007153500002459623,0.012925800008815713,20,reward,1,[0.19437300000572577],[0.19437680000555702],492.86186240000825,492.86186240000825,0.008319599990500137,0.008319599990500137,0.018409999989671633,0.05312399999820627,0.060050299987779,0.1016961999994237,0.10864310000033583,1.0044343999907142,496.3548327000026,500.3893537999975,,,,,,,,,,,,,,,,,,,,,,,,,,,,,15,C,2023-12-08_16h49.07.936,gca_avoidance_task,2022.2.4,143.72214485093292,
positions.xlsx,stimuli.xlsx,stimuli/Social1.png,stimuli/Social2.png,stimuli/Nonsocial2.png,stimuli/Nonsocial1.png,,"(-0.7, -0.5)",cs_minus_s,,,,,0,0,0,0,,,,,0,9,9,5,,,,,,,,,,,,,,,,,,,,,,,,,,,,,,,,,,,,,,,,,,,,,,,,,,,,,,,,,,,,,,500.8962511999998,502.68092090000573,500.3893537999975,502.68092090000573,502.68092090000573,502.68092090000573,0.006539900001371279,,25,reward,1,[0.008041900000534952],[0.008046000002650544],502.68092090000573,502.68092090000573,0.007300099998246878,0.007300099998246878,0.01800359999469947,0.0524952999985544,0.05944959999760613,0.10110449999046978,0.10810629998741206,1.003957699998864,506.1738508999988,509.7431316000002,,,,,,,,,,,,,,,,,,,,,,,,,,,,,15,C,2023-12-08_16h49.07.936,gca_avoidance_task,2022.2.4,143.72214485093292,
positions.xlsx,stimuli.xlsx,stimuli/Social1.png,stimuli/Social2.png,stimuli/Nonsocial2.png,stimuli/Nonsocial1.png,,"(0.7, 0.5)",cs_minus_s,,,,,0,0,0,0,,,,,0,10,10,6,,,,,,,,,,,,,,,,,,,,,,,,,,,,,,,,,,,,,,,,,,,,,,,,,,,,,,,,,,,,,,510.2500512999977,512.0554828000022,509.7431316000002,512.0554828000022,512.0554828000022,512.0554828000022,0.006894200007081963,0.012985699999262579,30,reward,1,[0.14580550001119263],[0.14580920001026243],512.2083265999972,512.2083265999972,0.007516899990150705,0.007516899990150705,0.01873469998827204,0.053389399996376596,0.060358399990946054,0.10196580000047106,0.1089324999920791,1.0047407999954885,515.7012925000017,519.4371941999998,,,,,,,,,,,,,,,,,,,,,,,,,,,,,15,C,2023-12-08_16h49.07.936,gca_avoidance_task,2022.2.4,143.72214485093292,
positions.xlsx,stimuli.xlsx,stimuli/Social1.png,stimuli/Social2.png,stimuli/Nonsocial2.png,stimuli/Nonsocial1.png,,"(-0.7, 0.5)",cs_minus_s,,,,,0,0,0,0,,,,,0,11,11,4,,,,,,,,,,,,,,,,,,,,,,,,,,,,,,,,,,,,,,,,,,,,,,,,,,,,,,,,,,,,,,519.9440858000016,521.4023334000085,519.4371941999998,521.4023334000085,521.4023334000085,521.4023334000085,0.006352099997457117,0.013395999994827434,35,reward,1,[0.16692189998866525],[0.166939699993236],521.5759854000062,521.5759854000062,0.007452299993019551,0.007452299993019551,0.018321099996683188,0.05293829999573063,0.05988889999571256,0.10158469999441877,0.10848089998762589,1.0043315999937477,525.068900600003,528.9021528000012,,,,,,,,,,,,,,,,,,,,,,,,,,,,,15,C,2023-12-08_16h49.07.936,gca_avoidance_task,2022.2.4,143.72214485093292,
positions.xlsx,stimuli.xlsx,stimuli/Social1.png,stimuli/Social2.png,stimuli/Nonsocial2.png,stimuli/Nonsocial1.png,,"(0.7, -0.5)",cs_minus_ns,,,,,0,0,0,0,,,,,0,12,12,15,,,,,,,,,,,,,,,,,,,,,,,,,,,,,,,,,,,,,,,,,,,,,,,,,,,,,,,,,,,,,,529.4089850000018,530.5617246000038,528.9021528000012,530.5617246000038,530.5617246000038,530.5617246000038,0.00666869999258779,0.013148199999704957,40,reward,1,[0.2570960000011837],[0.2570997000002535],530.825639600007,530.825639600007,0.008590600002207793,0.008590600002207793,0.018546599996625446,0.053190999999060296,0.06018200000107754,0.10178240000095684,0.10879430000204593,1.0045450999896275,534.3185861999955,538.3253844999999,,,,,,,,,,,,,,,,,,,,,,,,,,,,,15,C,2023-12-08_16h49.07.936,gca_avoidance_task,2022.2.4,143.72214485093292,
positions.xlsx,stimuli.xlsx,stimuli/Social1.png,stimuli/Social2.png,stimuli/Nonsocial2.png,stimuli/Nonsocial1.png,,"(-0.7, -0.5)",cs_plus_s,,,,,0,0,0,0,,,,,0,13,13,1,,,,,,,,,,,,,,,,,,,,,,,,,,,,,,,,,,,,,,,,,,,,,,,,,,,,,,,,,,,,,,538.8322536000051,540.5127300000022,538.3253844999999,540.5127300000022,540.5127300000022,540.5127300000022,0.006845000010798685,0.013255199999548495,40,shock,1,[0.15292020000924822],[0.15292370000679512],540.6724507000035,540.6724507000035,0.0071124999958556145,0.0071124999958556145,0.018278999996255152,0.052958500004024245,0.05990160000510514,0.10148510000726674,0.1084668999974383,1.0042772000015248,544.1654305999982,548.2416157999978,,,,,,,,,,,,,,,,,,,,,,,,,,,,,15,C,2023-12-08_16h49.07.936,gca_avoidance_task,2022.2.4,143.72214485093292,
positions.xlsx,stimuli.xlsx,stimuli/Social1.png,stimuli/Social2.png,stimuli/Nonsocial2.png,stimuli/Nonsocial1.png,,"(-0.7, -0.5)",cs_plus_ns,,,,,0,0,0,0,,,,,0,14,14,9,,,,,,,,,,,,,,,,,,,,,,,,,,,,,,,,,,,,,,,,,,,,,,,,,,,,,,,,,,,,,,548.7484769000002,550.1095296999993,548.2416157999978,550.1095296999993,550.1095296999993,550.1095296999993,0.006897900006151758,,40,shock,1,[0.008064500012551434],[0.008068400013144128],550.1095296999993,550.1095296999993,0.0076532999955816194,0.0076532999955816194,0.017251900004339404,0.051945100000011735,0.05894829999306239,0.10055829999328125,0.10748599999351427,1.0033283999946434,553.6025003999966,557.7690479000012,,,,,,,,,,,,,,,,,,,,,,,,,,,,,15,C,2023-12-08_16h49.07.936,gca_avoidance_task,2022.2.4,143.72214485093292,
positions.xlsx,stimuli.xlsx,stimuli/Social1.png,stimuli/Social2.png,stimuli/Nonsocial2.png,stimuli/Nonsocial1.png,,"(0.7, -0.5)",cs_plus_s,,,,,0,0,0,0,,,,,0,15,15,3,,,,,,,,,,,,,,,,,,,,,,,,,,,,,,,,,,,,,,,,,,,,,,,,,,,,,,,,,,,,,,558.275894499995,559.4564378000068,557.7690479000012,559.4564378000068,559.4564378000068,559.4564378000068,0.006321299995761365,0.013316999989910983,40,shock,1,[0.19469540000136476],[0.19469910000043456],559.6508375999983,559.6508375999983,0.007220500003313646,0.007220500003313646,0.011597699995036237,0.05322859999432694,0.06019879999803379,0.10181710000324529,0.10887159999401774,1.0045543000014732,563.1507838999969,566.6645044000034,,,,,,,,,,,,,,,,,,,,,,,,,,,,,15,C,2023-12-08_16h49.07.936,gca_avoidance_task,2022.2.4,143.72214485093292,
positions.xlsx,stimuli.xlsx,stimuli/Social1.png,stimuli/Social2.png,stimuli/Nonsocial2.png,stimuli/Nonsocial1.png,,"(-0.7, -0.5)",cs_plus_s,,,,,0,0,0,0,,,,,1,0,16,1,,,,,,,,,,,,,,,,,,,,,,,,,,,,,,,,,,,,,,,,,,,,,,,,,,,,,,,,,,,,,,567.1713640999951,568.6157635999989,566.6645044000034,568.6157635999989,568.6157635999989,568.6157635999989,0.005830399997648783,0.01336470000387635,40,shock,1,[0.1808591000008164],[0.18086269999912474],568.7963052999985,568.7963052999985,0.007410700010950677,0.007410700010950677,0.011723300005542114,0.05338040000060573,0.06032630000845529,0.10199560000910424,0.1089304000051925,1.0047100000083447,572.2961819000047,576.5738217000035,,,,,,,,,,,,,,,,,,,,,,,,,,,,,15,C,2023-12-08_16h49.07.936,gca_avoidance_task,2022.2.4,143.72214485093292,
positions.xlsx,stimuli.xlsx,stimuli/Social1.png,stimuli/Social2.png,stimuli/Nonsocial2.png,stimuli/Nonsocial1.png,,"(-0.7, 0.5)",cs_plus_ns,,,,,0,0,0,0,,,,,1,1,17,8,,,,,,,,,,,,,,,,,,,,,,,,,,,,,,,,,,,,,,,,,,,,,,,,,,,,,,,,,,,,,,577.0807013000012,578.6153782000038,576.5738217000035,578.6153782000038,578.6153782000038,578.6153782000038,0.007560900005046278,0.01301590001094155,40,shock,1,[0.17384670001047198],[0.17385030000878032],578.7959166000073,578.7959166000073,0.007818700003554113,0.007818700003554113,0.01825459999963641,0.052982000008341856,0.05989620000764262,0.10154160000092816,0.10851760000514332,1.0043153000005987,582.2888623000035,586.2330887999997,,,,,,,,,,,,,,,,,,,,,,,,,,,,,15,C,2023-12-08_16h49.07.936,gca_avoidance_task,2022.2.4,143.72214485093292,
positions.xlsx,stimuli.xlsx,stimuli/Social1.png,stimuli/Social2.png,stimuli/Nonsocial2.png,stimuli/Nonsocial1.png,,"(-0.7, 0.5)",cs_plus_s,,,,,0,0,0,0,,,,,1,2,18,0,,,,,,,,,,,,,,,,,,,,,,,,,,,,,,,,,,,,,,,,,,,,,,,,,,,,,,,,,,,,,,586.7400271000079,588.7330296,586.2330887999997,588.7330296,588.7330296,588.7330296,0.006318600004306063,0.013203499998780899,40,shock,1,[0.16674919999786653],[0.1736977999971714],588.9135871000035,588.9135871000035,0.007415899992338382,0.007415899992338382,0.018588299994007684,0.05323739998857491,0.060171499993884936,0.1018086999974912,0.10880199998791795,1.0046074999991106,592.4065364999988,595.9202346999955,,,,,,,,,,,,,,,,,,,,,,,,,,,,,15,C,2023-12-08_16h49.07.936,gca_avoidance_task,2022.2.4,143.72214485093292,
positions.xlsx,stimuli.xlsx,stimuli/Social1.png,stimuli/Social2.png,stimuli/Nonsocial2.png,stimuli/Nonsocial1.png,,"(-0.7, -0.5)",cs_minus_ns,,,,,0,0,0,0,,,,,1,3,19,13,,,,,,,,,,,,,,,,,,,,,,,,,,,,,,,,,,,,,,,,,,,,,,,,,,,,,,,,,,,,,,596.4271762999997,598.2256988000008,595.9202346999955,598.2256988000008,598.2256988000008,598.2256988000008,0.007838899997295812,0.01337220000277739,45,reward,1,[0.1880648999940604],[0.18806889999541454],598.4201467999956,598.4201467999956,0.0076310000004014,0.0076310000004014,0.018146700007491745,0.05282219999935478,0.05975359999865759,0.10139009999693371,0.10835840000072494,1.0041853000002448,601.9130658000067,605.6281845000049,,,,,,,,,,,,,,,,,,,,,,,,,,,,,15,C,2023-12-08_16h49.07.936,gca_avoidance_task,2022.2.4,143.72214485093292,
positions.xlsx,stimuli.xlsx,stimuli/Social1.png,stimuli/Social2.png,stimuli/Nonsocial2.png,stimuli/Nonsocial1.png,,"(-0.7, -0.5)",cs_minus_s,,,,,0,0,0,0,,,,,1,4,20,5,,,,,,,,,,,,,,,,,,,,,,,,,,,,,,,,,,,,,,,,,,,,,,,,,,,,,,,,,,,,,,606.1351204999955,607.211443799999,605.6281845000049,607.211443799999,607.211443799999,607.211443799999,0.006159500000649132,0.013091200002236292,50,reward,1,[0.14589659999182913],[0.14590019999013748],607.3642274000013,607.3642274000013,0.007345899997744709,0.007345899997744709,0.018664099989109673,0.0533173000003444,0.060290099994745106,0.10193059999437537,0.10890209999342915,1.0046933999983594,610.8572338999948,615.0514562000026,,,,,,,,,,,,,,,,,,,,,,,,,,,,,15,C,2023-12-08_16h49.07.936,gca_avoidance_task,2022.2.4,143.72214485093292,
positions.xlsx,stimuli.xlsx,stimuli/Social1.png,stimuli/Social2.png,stimuli/Nonsocial2.png,stimuli/Nonsocial1.png,,"(0.7, 0.5)",cs_plus_s,,,,,0,0,0,0,,,,,1,5,21,2,,,,,,,,,,,,,,,,,,,,,,,,,,,,,,,,,,,,,,,,,,,,,,,,,,,,,,,,,,,,,,615.5583726000041,617.1971696999972,615.0514562000026,617.1971696999972,617.1971696999972,617.1971696999972,0.005815099997562356,0.013279100006911904,50,shock,1,[0.1460540999978548],[0.14605769999616314],617.3499207999994,617.3499207999994,0.00706720000016503,0.00706720000016503,0.018391999998129904,0.05307870000251569,0.06002499999885913,0.10174250000272878,0.108666500003892,1.0044396000012057,620.8428606999951,624.6274439999979,,,,,,,,,,,,,,,,,,,,,,,,,,,,,15,C,2023-12-08_16h49.07.936,gca_avoidance_task,2022.2.4,143.72214485093292,
positions.xlsx,stimuli.xlsx,stimuli/Social1.png,stimuli/Social2.png,stimuli/Nonsocial2.png,stimuli/Nonsocial1.png,,"(-0.7, 0.5)",cs_minus_ns,,,,,0,0,0,0,,,,,1,6,22,12,,,,,,,,,,,,,,,,,,,,,,,,,,,,,,,,,,,,,,,,,,,,,,,,,,,,,,,,,,,,,,625.1343379000027,626.2801234000071,624.6274439999979,626.2801234000071,626.2801234000071,626.2801234000071,0.006836400003521703,0.013164800009690225,55,reward,1,[0.20845720000215806],[0.2084608000004664],626.4954010000074,626.4954010000074,0.00769239998771809,0.00769239998771809,0.018849799991585314,0.053467599995201454,0.0604276999947615,0.1021069999987958,0.10905529999581631,1.0048906999872997,629.9883416000084,633.863179100008,,,,,,,,,,,,,,,,,,,,,,,,,,,,,15,C,2023-12-08_16h49.07.936,gca_avoidance_task,2022.2.4,143.72214485093292,
positions.xlsx,stimuli.xlsx,stimuli/Social1.png,stimuli/Social2.png,stimuli/Nonsocial2.png,stimuli/Nonsocial1.png,,"(0.7, -0.5)",cs_plus_ns,,,,,0,0,0,0,,,,,1,7,23,11,,,,,,,,,,,,,,,,,,,,,,,,,,,,,,,,,,,,,,,,,,,,,,,,,,,,,,,,,,,,,,634.3700690999976,635.9741748000088,633.863179100008,635.9741748000088,635.9741748000088,635.9741748000088,0.0071776999975554645,0.013326800006325357,55,shock,1,[0.19484680000459775],[0.1948504000029061],636.1755681000068,636.1755681000068,0.007992700004251674,0.007992700004251674,0.018072200007736683,0.05273290000332054,0.05971430000499822,0.10133450001012534,0.10830200000782497,1.0041323000041302,639.6685106000077,643.7378046999947,,,,,,,,,,,,,,,,,,,,,,,,,,,,,15,C,2023-12-08_16h49.07.936,gca_avoidance_task,2022.2.4,143.72214485093292,
positions.xlsx,stimuli.xlsx,stimuli/Social1.png,stimuli/Social2.png,stimuli/Nonsocial2.png,stimuli/Nonsocial1.png,,"(0.7, -0.5)",cs_minus_ns,,,,,0,0,0,0,,,,,1,8,24,15,,,,,,,,,,,,,,,,,,,,,,,,,,,,,,,,,,,,,,,,,,,,,,,,,,,,,,,,,,,,,,644.2446888999984,645.8626866999984,643.7378046999947,645.8626866999984,645.8626866999984,645.8626866999984,0.008360699997865595,0.01989349999348633,60,reward,1,[0.2359604999946896],[0.23596429999452084],646.0987793999957,646.0987793999957,0.007393099993350916,0.007393099993350916,0.018172199997934513,0.052862099997582845,0.05976399999053683,0.10142399999313056,0.10838999999396037,1.0041857999895,649.5917705000029,653.1888008999958,,,,,,,,,,,,,,,,,,,,,,,,,,,,,15,C,2023-12-08_16h49.07.936,gca_avoidance_task,2022.2.4,143.72214485093292,
positions.xlsx,stimuli.xlsx,stimuli/Social1.png,stimuli/Social2.png,stimuli/Nonsocial2.png,stimuli/Nonsocial1.png,,"(0.7, 0.5)",cs_plus_ns,,,,,0,0,0,0,,,,,1,9,25,10,,,,,,,,,,,,,,,,,,,,,,,,,,,,,,,,,,,,,,,,,,,,,,,,,,,,,,,,,,,,,,653.6957279000053,655.5428752000007,653.1888008999958,655.5428752000007,655.5428752000007,655.5428752000007,0.006809200000134297,0.013218599997344427,60,shock,1,[0.1946375999978045],[0.19464119999611285],655.7442210000008,655.7442210000008,0.007428199998685159,0.007428199998685159,0.01834979999694042,0.05305010000301991,0.060018899996066466,0.1016239000018686,0.10858159999770578,1.004344700006186,659.2371368000022,663.6883991000068,,,,,,,,,,,,,,,,,,,,,,,,,,,,,15,C,2023-12-08_16h49.07.936,gca_avoidance_task,2022.2.4,143.72214485093292,
positions.xlsx,stimuli.xlsx,stimuli/Social1.png,stimuli/Social2.png,stimuli/Nonsocial2.png,stimuli/Nonsocial1.png,,"(0.7, -0.5)",cs_minus_s,,,,,0,0,0,0,,,,,1,10,26,7,,,,,,,,,,,,,,,,,,,,,,,,,,,,,,,,,,,,,,,,,,,,,,,,,,,,,,,,,,,,,,664.1952763000008,665.667455200004,663.6883991000068,665.667455200004,665.667455200004,665.667455200004,0.006644000008236617,0.013286600005812943,65,reward,1,[0.1808244999992894],[0.18082789999607485],665.8549929000001,665.8549929000001,0.006626999995205551,0.006626999995205551,0.018873799999710172,0.05350419999740552,0.060459300002548844,0.10207850000006147,0.109080800000811,1.0048680000036256,669.3479301000043,672.9727577000012,,,,,,,,,,,,,,,,,,,,,,,,,,,,,15,C,2023-12-08_16h49.07.936,gca_avoidance_task,2022.2.4,143.72214485093292,
positions.xlsx,stimuli.xlsx,stimuli/Social1.png,stimuli/Social2.png,stimuli/Nonsocial2.png,stimuli/Nonsocial1.png,,"(0.7, 0.5)",cs_minus_s,,,,,0,0,0,0,,,,,1,11,27,6,,,,,,,,,,,,,,,,,,,,,,,,,,,,,,,,,,,,,,,,,,,,,,,,,,,,,,,,,,,,,,673.4796289000078,674.9518099999987,672.9727577000012,674.9518099999987,674.9518099999987,674.9518099999987,0.006353800010401756,0.013221200002590194,70,reward,1,[0.26420190000499133],[0.2642057000048226],675.2226509000029,675.2226509000029,0.007123300005332567,0.007123300005332567,0.018125000002328306,0.052808899999945424,0.059752400004072115,0.10141940000175964,0.10835169999336358,1.0041205000015907,678.7156105000031,683.0278735000029,,,,,,,,,,,,,,,,,,,,,,,,,,,,,15,C,2023-12-08_16h49.07.936,gca_avoidance_task,2022.2.4,143.72214485093292,
positions.xlsx,stimuli.xlsx,stimuli/Social1.png,stimuli/Social2.png,stimuli/Nonsocial2.png,stimuli/Nonsocial1.png,,"(-0.7, 0.5)",cs_minus_s,,,,,0,0,0,0,,,,,1,12,28,4,,,,,,,,,,,,,,,,,,,,,,,,,,,,,,,,,,,,,,,,,,,,,,,,,,,,,,,,,,,,,,683.534777000008,685.0624972000078,683.0278735000029,685.0624972000078,685.0624972000078,685.0624972000078,0.0059785000048577785,0.013229500007582828,75,reward,1,[0.20156480000878219],[0.20156860000861343],685.2708511999954,685.2708511999954,0.006955000004381873,0.006955000004381873,0.0188036000035936,0.05360189999919385,0.06047810000018217,0.1021383000042988,0.1090762999956496,1.0048341000074288,688.7637838000082,692.4233665000065,,,,,,,,,,,,,,,,,,,,,,,,,,,,,15,C,2023-12-08_16h49.07.936,gca_avoidance_task,2022.2.4,143.72214485093292,
positions.xlsx,stimuli.xlsx,stimuli/Social1.png,stimuli/Social2.png,stimuli/Nonsocial2.png,stimuli/Nonsocial1.png,,"(0.7, -0.5)",cs_plus_s,,,,,0,0,0,0,,,,,1,13,29,3,,,,,,,,,,,,,,,,,,,,,,,,,,,,,,,,,,,,,,,,,,,,,,,,,,,,,,,,,,,,,,692.9302404000045,694.4232409999968,692.4233665000065,694.4232409999968,694.4232409999968,694.4232409999968,0.00639239999873098,0.012938100000610575,75,shock,1,[0.15292269999918062],[0.15292609999596607],694.5830176000018,694.5830176000018,0.007186300004832447,0.007186300004832447,0.018547899991972372,0.05312939999566879,0.060103399999206886,0.10174959999858402,0.10873809999611694,1.0044947999995202,698.0759053000074,701.6521516000066,,,,,,,,,,,,,,,,,,,,,,,,,,,,,15,C,2023-12-08_16h49.07.936,gca_avoidance_task,2022.2.4,143.72214485093292,
positions.xlsx,stimuli.xlsx,stimuli/Social1.png,stimuli/Social2.png,stimuli/Nonsocial2.png,stimuli/Nonsocial1.png,,"(0.7, 0.5)",cs_minus_ns,,,,,0,0,0,0,,,,,1,14,30,14,,,,,,,,,,,,,,,,,,,,,,,,,,,,,,,,,,,,,,,,,,,,,,,,,,,,,,,,,,,,,,702.1590320999967,704.0131343999965,701.6521516000066,704.0131343999965,704.0131343999965,704.0131343999965,0.0071060000045690686,0.01337739999871701,80,reward,1,[0.27113480000116397],[0.27113850000023376],704.2909226000047,704.2909226000047,0.007867699998314492,0.007867699998314492,0.018646899989107624,0.05331219999061432,0.06026179999753367,0.10195709999243263,0.10886979999486357,1.0046479999873554,707.7838464000088,712.0198229000089,,,,,,,,,,,,,,,,,,,,,,,,,,,,,15,C,2023-12-08_16h49.07.936,gca_avoidance_task,2022.2.4,143.72214485093292,
positions.xlsx,stimuli.xlsx,stimuli/Social1.png,stimuli/Social2.png,stimuli/Nonsocial2.png,stimuli/Nonsocial1.png,,"(-0.7, -0.5)",cs_plus_ns,,,,,0,0,0,0,,,,,1,15,31,9,,,,,,,,,,,,,,,,,,,,,,,,,,,,,,,,,,,,,,,,,,,,,,,,,,,,,,,,,,,,,,712.5266900999995,713.7627601999993,712.0198229000089,713.7627601999993,713.7627601999993,713.7627601999993,0.006788900005631149,0.013121000010869466,80,shock,1,[0.23621030000504106],[0.23621400000411086],714.0057898999949,714.0057898999949,0.007998700006282888,0.007998700006282888,0.01845360000152141,0.05313280000700615,0.06010770000284538,0.10173120000399649,0.10870419999992009,1.004495200002566,717.4987714000017,721.4152293000079,,,,,,,,,,,,,,,,,,,,,,,,,,,,,15,C,2023-12-08_16h49.07.936,gca_avoidance_task,2022.2.4,143.72214485093292,
positions.xlsx,stimuli.xlsx,stimuli/Social1.png,stimuli/Social2.png,stimuli/Nonsocial2.png,stimuli/Nonsocial1.png,,"(-0.7, -0.5)",cs_minus_ns,,,,,0,0,0,0,,,,,,,,,0,0,0,13,,,,,,,,,,,,,,,,,,,,,,,,,,,,,,,,,,,,,,,,,,,,,,,,,,,,,,,,,,747.3933427000011,749.3030579000042,746.8934071999975,749.3030579000042,749.3030579000042,749.3030579000042,0.00695830000040587,0.013013299991143867,80,none,0,,,754.3097377000086,754.3097377000086,0.014325999989523552,0.014325999989523552,0.019715200003702193,0.05442259999108501,0.06137799999851268,0.10296809999272227,0.11002700000244658,1.012714299999061,757.8027219000069,761.920541200001,721.4152293000079,721.4152293000079,721.4152293000079,721.4152293000079,space,23.849057300001732,,,,,,,,,,,,,,,,,,,,,,,15,C,2023-12-08_16h49.07.936,gca_avoidance_task,2022.2.4,143.72214485093292,
positions.xlsx,stimuli.xlsx,stimuli/Social1.png,stimuli/Social2.png,stimuli/Nonsocial2.png,stimuli/Nonsocial1.png,,"(0.7, 0.5)",cs_minus_ns,,,,,0,0,0,0,,,,,,,,,0,1,1,14,,,,,,,,,,,,,,,,,,,,,,,,,,,,,,,,,,,,,,,,,,,,,,,,,,,,,,,,,,762.4274925000063,764.0940838999959,761.920541200001,764.0940838999959,764.0940838999959,764.0940838999959,0.0066094999929191545,0.012963299988768995,80,none,0,,,769.100841300009,769.100841300009,0.013725799988606013,0.013725799988606013,0.01974919998610858,0.05442369999946095,0.06135849999554921,0.10296079999534413,0.10994099998788442,1.0126329999911832,772.5938002000039,776.1561585000018,,,,,,,,,,,,,,,,,,,,,,,,,,,,,15,C,2023-12-08_16h49.07.936,gca_avoidance_task,2022.2.4,143.72214485093292,
positions.xlsx,stimuli.xlsx,stimuli/Social1.png,stimuli/Social2.png,stimuli/Nonsocial2.png,stimuli/Nonsocial1.png,,"(0.7, -0.5)",cs_plus_ns,,,,,0,0,0,0,,,,,,,,,0,2,2,11,,,,,,,,,,,,,,,,,,,,,,,,,,,,,,,,,,,,,,,,,,,,,,,,,,,,,,,,,,776.6630336000089,778.6421177000011,776.1561585000018,778.6421177000011,778.6421177000011,778.6421177000011,0.006336099992040545,0.013352099995245226,80,none,0,,,783.6488531000068,783.6488531000068,0.014031099999556318,0.014031099999556318,0.020121800000197254,0.05478109999967273,0.06177069999102969,0.10342129999480676,0.11037999999825843,1.0130892000015592,787.1418475999963,791.5097291999991,,,,,,,,,,,,,,,,,,,,,,,,,,,,,15,C,2023-12-08_16h49.07.936,gca_avoidance_task,2022.2.4,143.72214485093292,
positions.xlsx,stimuli.xlsx,stimuli/Social1.png,stimuli/Social2.png,stimuli/Nonsocial2.png,stimuli/Nonsocial1.png,,"(0.7, -0.5)",cs_minus_ns,,,,,0,0,0,0,,,,,,,,,0,3,3,15,,,,,,,,,,,,,,,,,,,,,,,,,,,,,,,,,,,,,,,,,,,,,,,,,,,,,,,,,,792.0165748,793.356800900001,791.5097291999991,793.356800900001,793.356800900001,793.356800900001,0.006574699989869259,0.013106599988532253,80,none,0,,,798.3636206000083,798.3636206000083,0.013965899997856468,0.013965899997856468,0.019933199990191497,0.054575699992710724,0.0615304999955697,0.10313489999680314,0.11012069998832885,1.0128809999878285,801.8564933000016,805.9743724,,,,,,,,,,,,,,,,,,,,,,,,,,,,,15,C,2023-12-08_16h49.07.936,gca_avoidance_task,2022.2.4,143.72214485093292,
positions.xlsx,stimuli.xlsx,stimuli/Social1.png,stimuli/Social2.png,stimuli/Nonsocial2.png,stimuli/Nonsocial1.png,,"(-0.7, -0.5)",cs_plus_s,,,,,0,0,0,0,,,,,,,,,0,4,4,1,,,,,,,,,,,,,,,,,,,,,,,,,,,,,,,,,,,,,,,,,,,,,,,,,,,,,,,,,,806.4812963000004,808.4325967000041,805.9743724,808.4325967000041,808.4325967000041,808.4325967000041,0.005718699991120957,0.013129699989804067,80,none,0,,,813.4393970000092,813.4393970000092,0.013843599997926503,0.013843599997926503,0.019906200002878904,0.05457929999101907,0.06152779998956248,0.10316189999866765,0.11009289999492466,1.0128512999945087,816.9322588000068,820.5849629000004,,,,,,,,,,,,,,,,,,,,,,,,,,,,,15,C,2023-12-08_16h49.07.936,gca_avoidance_task,2022.2.4,143.72214485093292,
positions.xlsx,stimuli.xlsx,stimuli/Social1.png,stimuli/Social2.png,stimuli/Nonsocial2.png,stimuli/Nonsocial1.png,,"(-0.7, 0.5)",cs_plus_ns,,,,,0,0,0,0,,,,,,,,,0,5,5,8,,,,,,,,,,,,,,,,,,,,,,,,,,,,,,,,,,,,,,,,,,,,,,,,,,,,,,,,,,821.0918421999959,822.5153679000068,820.5849629000004,822.5153679000068,822.5153679000068,822.5153679000068,0.0063341000059153885,0.013263600005302578,80,none,0,,,827.5221277999954,827.5221277999954,0.013790199998766184,0.013790199998766184,0.02002000001084525,0.05469850001099985,0.06168949999846518,0.10334810000495054,0.11030100000789389,1.0130134000064572,831.0150597000029,834.5704962000018,,,,,,,,,,,,,,,,,,,,,,,,,,,,,15,C,2023-12-08_16h49.07.936,gca_avoidance_task,2022.2.4,143.72214485093292,
positions.xlsx,stimuli.xlsx,stimuli/Social1.png,stimuli/Social2.png,stimuli/Nonsocial2.png,stimuli/Nonsocial1.png,,"(0.7, -0.5)",cs_plus_s,,,,,0,0,0,0,,,,,,,,,0,6,6,3,,,,,,,,,,,,,,,,,,,,,,,,,,,,,,,,,,,,,,,,,,,,,,,,,,,,,,,,,,835.077420200003,836.4453619999986,834.5704962000018,836.4453619999986,836.4453619999986,836.4453619999986,0.005990500008920208,0.013082700010272674,80,none,0,,,841.4521632999968,841.4521632999968,0.013256200007162988,0.013256200007162988,0.019891500007361174,0.05454330000793561,0.061525800003437325,0.10311350000847597,0.11007490000338294,1.0128535999974702,844.945066500004,849.4449041000044,,,,,,,,,,,,,,,,,,,,,,,,,,,,,15,C,2023-12-08_16h49.07.936,gca_avoidance_task,2022.2.4,143.72214485093292,
positions.xlsx,stimuli.xlsx,stimuli/Social1.png,stimuli/Social2.png,stimuli/Nonsocial2.png,stimuli/Nonsocial1.png,,"(0.7, -0.5)",cs_minus_s,,,,,0,0,0,0,,,,,,,,,0,7,7,7,,,,,,,,,,,,,,,,,,,,,,,,,,,,,,,,,,,,,,,,,,,,,,,,,,,,,,,,,,849.9517644000007,851.6461732000025,849.4449041000044,851.6461732000025,851.6461732000025,851.6461732000025,0.0059742000012192875,0.012955099999089725,80,none,0,,,856.6528883999999,856.6528883999999,0.013133600004948676,0.013133600004948676,0.019675700008519925,0.05438040000444744,0.06134169999859296,0.10297140000329819,0.10994910000590608,1.0127007999981288,860.1458746999997,863.9720624000038,,,,,,,,,,,,,,,,,,,,,,,,,,,,,15,C,2023-12-08_16h49.07.936,gca_avoidance_task,2022.2.4,143.72214485093292,
positions.xlsx,stimuli.xlsx,stimuli/Social1.png,stimuli/Social2.png,stimuli/Nonsocial2.png,stimuli/Nonsocial1.png,,"(0.7, 0.5)",cs_minus_s,,,,,0,0,0,0,,,,,,,,,0,8,8,6,,,,,,,,,,,,,,,,,,,,,,,,,,,,,,,,,,,,,,,,,,,,,,,,,,,,,,,,,,864.4789820000005,866.4094449999975,863.9720624000038,866.4094449999975,866.4094449999975,866.4094449999975,0.005988000004435889,0.013593800002126954,80,none,0,,,871.416212199998,871.416212199998,0.01375509999343194,0.01375509999343194,0.020394999999552965,0.0549886999942828,0.061954100005095825,0.10363019999931566,0.11062740000488702,1.0133077999926172,874.909147600003,878.8187389999948,,,,,,,,,,,,,,,,,,,,,,,,,,,,,15,C,2023-12-08_16h49.07.936,gca_avoidance_task,2022.2.4,143.72214485093292,
positions.xlsx,stimuli.xlsx,stimuli/Social1.png,stimuli/Social2.png,stimuli/Nonsocial2.png,stimuli/Nonsocial1.png,,"(0.7, 0.5)",cs_plus_s,,,,,0,0,0,0,,,,,,,,,0,9,9,2,,,,,,,,,,,,,,,,,,,,,,,,,,,,,,,,,,,,,,,,,,,,,,,,,,,,,,,,,,879.3255920000083,881.1449811000057,878.8187389999948,881.1449811000057,881.1449811000057,881.1449811000057,0.005861800003913231,0.013088100007735193,80,none,0,,,886.1517376999982,886.1517376999982,0.013203800001065247,0.013203800001065247,0.019853499994496815,0.05458270000235643,0.06150999999954365,0.10315880000416655,0.11010710000118706,1.012832399996114,889.6447074000025,893.8181612000044,,,,,,,,,,,,,,,,,,,,,,,,,,,,,15,C,2023-12-08_16h49.07.936,gca_avoidance_task,2022.2.4,143.72214485093292,
positions.xlsx,stimuli.xlsx,stimuli/Social1.png,stimuli/Social2.png,stimuli/Nonsocial2.png,stimuli/Nonsocial1.png,,"(-0.7, 0.5)",cs_plus_s,,,,,0,0,0,0,,,,,,,,,0,10,10,0,,,,,,,,,,,,,,,,,,,,,,,,,,,,,,,,,,,,,,,,,,,,,,,,,,,,,,,,,,894.3250257000036,895.540244200005,893.8181612000044,895.540244200005,895.540244200005,895.540244200005,0.005814300006022677,0.013406500002020039,80,none,0,,,900.5469534000003,900.5469534000003,0.014075700004468672,0.014075700004468672,0.020181600004434586,0.0548836000089068,0.061826000004657544,0.10349209999549203,0.1104308000067249,1.013160800008336,904.0399398000009,908.0467552000046,,,,,,,,,,,,,,,,,,,,,,,,,,,,,15,C,2023-12-08_16h49.07.936,gca_avoidance_task,2022.2.4,143.72214485093292,
positions.xlsx,stimuli.xlsx,stimuli/Social1.png,stimuli/Social2.png,stimuli/Nonsocial2.png,stimuli/Nonsocial1.png,,"(-0.7, 0.5)",cs_minus_s,,,,,0,0,0,0,,,,,,,,,0,11,11,4,,,,,,,,,,,,,,,,,,,,,,,,,,,,,,,,,,,,,,,,,,,,,,,,,,,,,,,,,,908.5536294000049,910.2271572000027,908.0467552000046,910.2271572000027,910.2271572000027,910.2271572000027,0.006154899994726293,0.012901499998406507,80,none,0,,,915.2339245000039,915.2339245000039,0.01303669999470003,0.01303669999470003,0.019686699990415946,0.05437239998718724,0.06132389999402221,0.10293719999026507,0.10995849999017082,1.0126466999936383,918.7268899000046,922.6502864000067,,,,,,,,,,,,,,,,,,,,,,,,,,,,,15,C,2023-12-08_16h49.07.936,gca_avoidance_task,2022.2.4,143.72214485093292,
positions.xlsx,stimuli.xlsx,stimuli/Social1.png,stimuli/Social2.png,stimuli/Nonsocial2.png,stimuli/Nonsocial1.png,,"(-0.7, -0.5)",cs_plus_ns,,,,,0,0,0,0,,,,,,,,,0,12,12,9,,,,,,,,,,,,,,,,,,,,,,,,,,,,,,,,,,,,,,,,,,,,,,,,,,,,,,,,,,923.1572043000051,924.2682654000091,922.6502864000067,924.2682654000091,924.2682654000091,924.2682654000091,0.00644280000415165,0.0130048999999417,80,none,0,,,929.2750020999956,929.2750020999956,0.013623899998492561,0.013623899998492561,0.019777400011662394,0.05443580000428483,0.06142550001095515,0.10310620001109783,0.11001030000625178,1.0127828000113368,932.7680032000062,936.9345130000002,,,,,,,,,,,,,,,,,,,,,,,,,,,,,15,C,2023-12-08_16h49.07.936,gca_avoidance_task,2022.2.4,143.72214485093292,
positions.xlsx,stimuli.xlsx,stimuli/Social1.png,stimuli/Social2.png,stimuli/Nonsocial2.png,stimuli/Nonsocial1.png,,"(-0.7, -0.5)",cs_minus_s,,,,,0,0,0,0,,,,,,,,,0,13,13,5,,,,,,,,,,,,,,,,,,,,,,,,,,,,,,,,,,,,,,,,,,,,,,,,,,,,,,,,,,937.4413625000016,938.8440796000068,936.9345130000002,938.8440796000068,938.8440796000068,938.8440796000068,0.005971199992927723,0.01334340000175871,80,none,0,,,943.8508334000071,943.8508334000071,0.013333199996850453,0.013333199996850453,0.020044799995957874,0.05474579999281559,0.06170839999685995,0.10336009999446105,0.11028419999638572,1.0130568999884417,947.3437982000032,951.676971199995,,,,,,,,,,,,,,,,,,,,,,,,,,,,,15,C,2023-12-08_16h49.07.936,gca_avoidance_task,2022.2.4,143.72214485093292,
positions.xlsx,stimuli.xlsx,stimuli/Social1.png,stimuli/Social2.png,stimuli/Nonsocial2.png,stimuli/Nonsocial1.png,,"(-0.7, 0.5)",cs_minus_ns,,,,,0,0,0,0,,,,,,,,,0,14,14,12,,,,,,,,,,,,,,,,,,,,,,,,,,,,,,,,,,,,,,,,,,,,,,,,,,,,,,,,,,952.1838114999991,954.142079199999,951.676971199995,954.142079199999,954.142079199999,954.142079199999,0.006546999997226521,0.013429899991024286,80,none,0,,,959.1488339000061,959.1488339000061,0.01424350000161212,0.01424350000161212,0.020189799994113855,0.05491249999613501,0.06186810000508558,0.10349660000065342,0.11046019999776036,1.0131608999945456,962.6418487000046,966.2805714999995,,,,,,,,,,,,,,,,,,,,,,,,,,,,,15,C,2023-12-08_16h49.07.936,gca_avoidance_task,2022.2.4,143.72214485093292,
positions.xlsx,stimuli.xlsx,stimuli/Social1.png,stimuli/Social2.png,stimuli/Nonsocial2.png,stimuli/Nonsocial1.png,,"(0.7, 0.5)",cs_plus_ns,,,,,0,0,0,0,,,,,,,,,0,15,15,10,,,,,,,,,,,,,,,,,,,,,,,,,,,,,,,,,,,,,,,,,,,,,,,,,,,,,,,,,,966.7874159000057,968.1831987000041,966.2805714999995,968.1831987000041,968.1831987000041,968.1831987000041,0.006625599999097176,0.01297589999740012,80,none,0,,,973.1899550999951,973.1899550999951,0.013656499999342486,0.013656499999342486,0.019765599994570948,0.05442559999937657,0.0613627999991877,0.10299590000067838,0.10995709999406245,1.012675499994657,976.682956699995,980.3980421000015,,,,,,,,,,,,,,,,,,,,,,,,,,,,,15,C,2023-12-08_16h49.07.936,gca_avoidance_task,2022.2.4,143.72214485093292,
positions.xlsx,stimuli.xlsx,stimuli/Social1.png,stimuli/Social2.png,stimuli/Nonsocial2.png,stimuli/Nonsocial1.png,,"(0.7, 0.5)",cs_plus_s,,,,,0,0,0,0,,,,,,,,,1,0,16,2,,,,,,,,,,,,,,,,,,,,,,,,,,,,,,,,,,,,,,,,,,,,,,,,,,,,,,,,,,980.9049650000088,982.1965586000006,980.3980421000015,982.1965586000006,982.1965586000006,982.1965586000006,0.00600490000215359,0.013528399998904206,80,none,0,,,987.2032902000064,987.2032902000064,0.0142271999939112,0.0142271999939112,0.020385199997690506,0.0548997000005329,0.06185060000279918,0.10361520000151359,0.11050290000275709,1.0132467999937944,990.6962454000022,995.0571356,,,,,,,,,,,,,,,,,,,,,,,,,,,,,15,C,2023-12-08_16h49.07.936,gca_avoidance_task,2022.2.4,143.72214485093292,
positions.xlsx,stimuli.xlsx,stimuli/Social1.png,stimuli/Social2.png,stimuli/Nonsocial2.png,stimuli/Nonsocial1.png,,"(-0.7, 0.5)",cs_plus_s,,,,,0,0,0,0,,,,,,,,,1,1,17,0,,,,,,,,,,,,,,,,,,,,,,,,,,,,,,,,,,,,,,,,,,,,,,,,,,,,,,,,,,995.5640626999957,997.3209334999992,995.0571356,997.3209334999992,997.3209334999992,997.3209334999992,0.005880900003830902,0.01322989999607671,80,none,0,,,1002.3277094000077,1002.3277094000077,0.013284600005135871,0.013284600005135871,0.020040500006871298,0.05467599999974482,0.061634700003196485,0.10330380000232253,0.11027299999841489,1.0129634000040824,1005.820690499997,1010.1399314000009,,,,,,,,,,,,,,,,,,,,,,,,,,,,,15,C,2023-12-08_16h49.07.936,gca_avoidance_task,2022.2.4,143.72214485093292,
positions.xlsx,stimuli.xlsx,stimuli/Social1.png,stimuli/Social2.png,stimuli/Nonsocial2.png,stimuli/Nonsocial1.png,,"(-0.7, 0.5)",cs_minus_s,,,,,0,0,0,0,,,,,,,,,1,2,18,4,,,,,,,,,,,,,,,,,,,,,,,,,,,,,,,,,,,,,,,,,,,,,,,,,,,,,,,,,,1010.6468099000049,1012.1259147999954,1010.1399314000009,1012.1259147999954,1012.1259147999954,1012.1259147999954,0.005999299988616258,0.01296909998927731,80,none,0,,,1017.1326789000013,1017.1326789000013,0.013182499998947605,0.013182499998947605,0.019741700001759455,0.05440349999116734,0.061391099996399134,0.10299079999094829,0.10995689999253955,1.0126673999911873,1020.6255770999996,1024.1254868999968,,,,,,,,,,,,,,,,,,,,,,,,,,,,,15,C,2023-12-08_16h49.07.936,gca_avoidance_task,2022.2.4,143.72214485093292,
positions.xlsx,stimuli.xlsx,stimuli/Social1.png,stimuli/Social2.png,stimuli/Nonsocial2.png,stimuli/Nonsocial1.png,,"(-0.7, -0.5)",cs_plus_ns,,,,,0,0,0,0,,,,,,,,,1,3,19,9,,,,,,,,,,,,,,,,,,,,,,,,,,,,,,,,,,,,,,,,,,,,,,,,,,,,,,,,,,1024.6323932000087,1026.375403500002,1024.1254868999968,1026.375403500002,1026.375403500002,1026.375403500002,0.0066214999969815835,0.012878499997896142,80,none,0,,,1031.3821268000029,1031.3821268000029,0.01392179999675136,0.01392179999675136,0.019661800004541874,0.05427130000316538,0.06126129999756813,0.10289639999973588,0.10986690000572708,1.0125766999990446,1034.8750778999965,1038.6804631999985,,,,,,,,,,,,,,,,,,,,,,,,,,,,,15,C,2023-12-08_16h49.07.936,gca_avoidance_task,2022.2.4,143.72214485093292,
positions.xlsx,stimuli.xlsx,stimuli/Social1.png,stimuli/Social2.png,stimuli/Nonsocial2.png,stimuli/Nonsocial1.png,,"(-0.7, -0.5)",cs_minus_ns,,,,,0,0,0,0,,,,,,,,,1,4,20,13,,,,,,,,,,,,,,,,,,,,,,,,,,,,,,,,,,,,,,,,,,,,,,,,,,,,,,,,,,1039.1873617999954,1040.687319100005,1038.6804631999985,1040.687319100005,1040.687319100005,1040.687319100005,0.007087599995429628,0.013352799986023456,80,none,0,,,1045.6940743000014,1045.6940743000014,0.014141499996185303,0.014141499996185303,0.02010899999004323,0.054797699995106086,0.06172139999398496,0.10340029999497347,0.11035199998877943,1.0130823999934364,1049.1870359000022,1052.9576645000052,,,,,,,,,,,,,,,,,,,,,,,,,,,,,15,C,2023-12-08_16h49.07.936,gca_avoidance_task,2022.2.4,143.72214485093292,
positions.xlsx,stimuli.xlsx,stimuli/Social1.png,stimuli/Social2.png,stimuli/Nonsocial2.png,stimuli/Nonsocial1.png,,"(0.7, 0.5)",cs_minus_s,,,,,0,0,0,0,,,,,,,,,1,5,21,6,,,,,,,,,,,,,,,,,,,,,,,,,,,,,,,,,,,,,,,,,,,,,,,,,,,,,,,,,,1053.464561700006,1055.3534048000001,1052.9576645000052,1055.3534048000001,1055.3534048000001,1055.3534048000001,0.007290399997145869,0.013314299998455681,80,none,0,,,1060.3601157999947,1060.3601157999947,0.013480399997206405,0.013480399997206405,0.020043900003656745,0.054754199998569675,0.06175480000092648,0.10333090000494849,0.11027030000695959,1.0130693999963114,1063.8530330000067,1068.0681946999975,,,,,,,,,,,,,,,,,,,,,,,,,,,,,15,C,2023-12-08_16h49.07.936,gca_avoidance_task,2022.2.4,143.72214485093292,
positions.xlsx,stimuli.xlsx,stimuli/Social1.png,stimuli/Social2.png,stimuli/Nonsocial2.png,stimuli/Nonsocial1.png,,"(0.7, -0.5)",cs_plus_s,,,,,0,0,0,0,,,,,,,,,1,6,22,3,,,,,,,,,,,,,,,,,,,,,,,,,,,,,,,,,,,,,,,,,,,,,,,,,,,,,,,,,,1068.575073,1070.3250062000006,1068.0681946999975,1070.3250062000006,1070.3250062000006,1070.3250062000006,0.006601599990972318,0.013462399991112761,80,none,0,,,1075.3318079000019,1075.3318079000019,0.013386799997533672,0.013386799997533672,0.020248799992259592,0.05488709999190178,0.061828699996112846,0.10345309998956509,0.11041379999369383,1.0132095000008121,1078.8247359000088,1082.4356611999974,,,,,,,,,,,,,,,,,,,,,,,,,,,,,15,C,2023-12-08_16h49.07.936,gca_avoidance_task,2022.2.4,143.72214485093292,
positions.xlsx,stimuli.xlsx,stimuli/Social1.png,stimuli/Social2.png,stimuli/Nonsocial2.png,stimuli/Nonsocial1.png,,"(-0.7, -0.5)",cs_minus_s,,,,,0,0,0,0,,,,,,,,,1,7,23,5,,,,,,,,,,,,,,,,,,,,,,,,,,,,,,,,,,,,,,,,,,,,,,,,,,,,,,,,,,1082.9425746000052,1083.9911337000085,1082.4356611999974,1083.9911337000085,1083.9911337000085,1083.9911337000085,0.006042299995897338,0.013354299997445196,80,none,0,,,1088.9978876999958,1088.9978876999958,0.013860699997167103,0.013860699997167103,0.020142900000791997,0.05477960000280291,0.06175140000414103,0.10342189999937546,0.11037549999309704,1.0130948000005446,1092.490865300002,1096.4004041000007,,,,,,,,,,,,,,,,,,,,,,,,,,,,,15,C,2023-12-08_16h49.07.936,gca_avoidance_task,2022.2.4,143.72214485093292,
positions.xlsx,stimuli.xlsx,stimuli/Social1.png,stimuli/Social2.png,stimuli/Nonsocial2.png,stimuli/Nonsocial1.png,,"(0.7, 0.5)",cs_minus_ns,,,,,0,0,0,0,,,,,,,,,1,8,24,14,,,,,,,,,,,,,,,,,,,,,,,,,,,,,,,,,,,,,,,,,,,,,,,,,,,,,,,,,,1096.9072845000046,1098.879441099998,1096.4004041000007,1098.879441099998,1098.879441099998,1098.879441099998,0.0074438000010559335,0.013209700002335012,80,none,0,,,1103.8862258000008,1103.8862258000008,0.014089600008446723,0.014089600008446723,0.019990200002212077,0.054630500002531335,0.06157510000048205,0.10323750000679865,0.11020360000838991,1.0129324000008637,1107.3791466999974,1111.5109465999994,,,,,,,,,,,,,,,,,,,,,,,,,,,,,15,C,2023-12-08_16h49.07.936,gca_avoidance_task,2022.2.4,143.72214485093292,
positions.xlsx,stimuli.xlsx,stimuli/Social1.png,stimuli/Social2.png,stimuli/Nonsocial2.png,stimuli/Nonsocial1.png,,"(0.7, 0.5)",cs_plus_ns,,,,,0,0,0,0,,,,,,,,,1,9,25,10,,,,,,,,,,,,,,,,,,,,,,,,,,,,,,,,,,,,,,,,,,,,,,,,,,,,,,,,,,1112.0178037000005,1113.3233191000036,1111.5109465999994,1113.3233191000036,1113.3233191000036,1113.3233191000036,0.006781599993701093,0.013115199995809235,80,none,0,,,1118.3300644999981,1118.3300644999981,0.014263400007621385,0.014263400007621385,0.01985739999508951,0.05454700000700541,0.06152940000174567,0.1031617999979062,0.11011350000626408,1.0127823000075296,1121.8230523999955,1126.1006530000013,,,,,,,,,,,,,,,,,,,,,,,,,,,,,15,C,2023-12-08_16h49.07.936,gca_avoidance_task,2022.2.4,143.72214485093292,
positions.xlsx,stimuli.xlsx,stimuli/Social1.png,stimuli/Social2.png,stimuli/Nonsocial2.png,stimuli/Nonsocial1.png,,"(-0.7, 0.5)",cs_plus_ns,,,,,0,0,0,0,,,,,,,,,1,10,26,8,,,,,,,,,,,,,,,,,,,,,,,,,,,,,,,,,,,,,,,,,,,,,,,,,,,,,,,,,,1126.6075672000006,1128.4685614000045,1126.1006530000013,1128.4685614000045,1128.4685614000045,1128.4685614000045,0.007077399990521371,0.01297879999037832,80,none,0,,,1133.4753008999978,1133.4753008999978,0.013726599994697608,0.013726599994697608,0.019759000002522953,0.05442119999497663,0.061369399991235696,0.10304159999941476,0.10998979999567382,1.012707000001683,1136.9683011000016,1140.5445168000006,,,,,,,,,,,,,,,,,,,,,,,,,,,,,15,C,2023-12-08_16h49.07.936,gca_avoidance_task,2022.2.4,143.72214485093292,
positions.xlsx,stimuli.xlsx,stimuli/Social1.png,stimuli/Social2.png,stimuli/Nonsocial2.png,stimuli/Nonsocial1.png,,"(-0.7, -0.5)",cs_plus_s,,,,,0,0,0,0,,,,,,,,,1,11,27,1,,,,,,,,,,,,,,,,,,,,,,,,,,,,,,,,,,,,,,,,,,,,,,,,,,,,,,,,,,1141.051383500002,1142.4332859999995,1140.5445168000006,1142.4332859999995,1142.4332859999995,1142.4332859999995,0.006265899995923974,0.01319589999911841,80,none,0,,,1147.4400582999951,1147.4400582999951,0.013937800002167933,0.013937800002167933,0.020007200000691228,0.05467569999746047,0.06160760000057053,0.1032749000005424,0.11021870000695344,1.0129517000023043,1150.9329795999947,1154.8147871999972,,,,,,,,,,,,,,,,,,,,,,,,,,,,,15,C,2023-12-08_16h49.07.936,gca_avoidance_task,2022.2.4,143.72214485093292,
positions.xlsx,stimuli.xlsx,stimuli/Social1.png,stimuli/Social2.png,stimuli/Nonsocial2.png,stimuli/Nonsocial1.png,,"(0.7, -0.5)",cs_minus_s,,,,,0,0,0,0,,,,,,,,,1,12,28,7,,,,,,,,,,,,,,,,,,,,,,,,,,,,,,,,,,,,,,,,,,,,,,,,,,,,,,,,,,1155.3216935999953,1156.9743757999968,1154.8147871999972,1156.9743757999968,1156.9743757999968,1156.9743757999968,0.006662200001301244,0.013068999993265606,85,reward,1,[0.1806839999917429],[0.18068779999157414],1157.161876099999,1157.161876099999,0.0075191999931121245,0.0075191999931121245,0.018315099994651973,0.05298710000352003,0.059977800003252923,0.10158889999729581,0.1085014999989653,1.004351299998234,1160.6548379000014,1164.4532785000047,,,,,,,,,,,,,,,,,,,,,,,,,,,,,15,C,2023-12-08_16h49.07.936,gca_avoidance_task,2022.2.4,143.72214485093292,
positions.xlsx,stimuli.xlsx,stimuli/Social1.png,stimuli/Social2.png,stimuli/Nonsocial2.png,stimuli/Nonsocial1.png,,"(0.7, -0.5)",cs_minus_ns,,,,,0,0,0,0,,,,,,,,,1,13,29,15,,,,,,,,,,,,,,,,,,,,,,,,,,,,,,,,,,,,,,,,,,,,,,,,,,,,,,,,,,1164.9601717000041,1166.7170680999989,1164.4532785000047,1166.7170680999989,1166.7170680999989,1166.7170680999989,0.007248099995194934,0.013291800001752563,90,reward,1,[0.2295899000018835],[0.22959379998792429],1166.9531465000036,1166.9531465000036,0.00796519999857992,0.00796519999857992,0.01827200000116136,0.05292859999462962,0.05987319999258034,0.10152620000008028,0.10848799999803305,1.0042933999939123,1170.446110600009,1174.8834308000078,,,,,,,,,,,,,,,,,,,,,,,,,,,,,15,C,2023-12-08_16h49.07.936,gca_avoidance_task,2022.2.4,143.72214485093292,
positions.xlsx,stimuli.xlsx,stimuli/Social1.png,stimuli/Social2.png,stimuli/Nonsocial2.png,stimuli/Nonsocial1.png,,"(0.7, -0.5)",cs_plus_ns,,,,,0,0,0,0,,,,,,,,,1,14,30,11,,,,,,,,,,,,,,,,,,,,,,,,,,,,,,,,,,,,,,,,,,,,,,,,,,,,,,,,,,1175.3903263999964,1176.8277868000005,1174.8834308000078,1176.8277868000005,1176.8277868000005,1176.8277868000005,0.0067878999980166554,0.01327599999785889,90,shock,1,[0.19467120000626892],[0.19467480000457726],1177.029149599999,1177.029149599999,0.008115899996482767,0.008115899996482767,0.01827169999887701,0.052951899997424334,0.059951799994450994,0.1015969000000041,0.10853259998839349,1.0043217999918852,1180.5220993999974,1184.4455411999952,,,,,,,,,,,,,,,,,,,,,,,,,,,,,15,C,2023-12-08_16h49.07.936,gca_avoidance_task,2022.2.4,143.72214485093292,
positions.xlsx,stimuli.xlsx,stimuli/Social1.png,stimuli/Social2.png,stimuli/Nonsocial2.png,stimuli/Nonsocial1.png,,"(-0.7, 0.5)",cs_minus_ns,,,,,0,0,0,0,,,,,,,,,1,15,31,12,,,,,,,,,,,,,,,,,,,,,,,,,,,,,,,,,,,,,,,,,,,,,,,,,,,,,,,,,,1184.952405700009,1186.5773935000034,1184.4455411999952,1186.5773935000034,1186.5773935000034,1186.5773935000034,0.006523699994431809,0.01316400000359863,95,reward,1,[1.0556839000055334],[1.0556875000038417],1187.6398498000053,1187.6398498000053,0.007484700006898493,0.007484700006898493,0.018451900003128685,0.05311809999693651,0.060042800003429875,0.10174490000645164,0.10868679999839514,1.004466800004593,1191.1328203000012,1195.4867808999988,,,,,,,,,,,,,,,,,,,,,,,,,,,,,15,C,2023-12-08_16h49.07.936,gca_avoidance_task,2022.2.4,143.72214485093292,
positions.xlsx,stimuli.xlsx,stimuli/Social1.png,stimuli/Social2.png,stimuli/Nonsocial2.png,stimuli/Nonsocial1.png,,"(-0.7, 0.5)",cs_minus_s,,,,,0,0,0,0,,,,,,,,,2,0,32,4,,,,,,,,,,,,,,,,,,,,,,,,,,,,,,,,,,,,,,,,,,,,,,,,,,,,,,,,,,1195.9936852999963,1197.3269504000054,1195.4867808999988,1197.3269504000054,1197.3269504000054,1197.3269504000054,0.006540799993672408,0.013126499994541518,100,reward,1,[0.3406064000009792],[0.34061020000081044],1197.674158599999,1197.674158599999,0.007631800006492995,0.007631800006492995,0.01830950001021847,0.05296120001003146,0.05992159999732394,0.10158509999746457,0.10859499999787658,1.0043475999991642,1201.1671192000067,1205.111434999999,,,,,,,,,,,,,,,,,,,,,,,,,,,,,15,C,2023-12-08_16h49.07.936,gca_avoidance_task,2022.2.4,143.72214485093292,
positions.xlsx,stimuli.xlsx,stimuli/Social1.png,stimuli/Social2.png,stimuli/Nonsocial2.png,stimuli/Nonsocial1.png,,"(0.7, -0.5)",cs_plus_s,,,,,0,0,0,0,,,,,,,,,2,1,33,3,,,,,,,,,,,,,,,,,,,,,,,,,,,,,,,,,,,,,,,,,,,,,,,,,,,,,,,,,,1205.6183453999984,1207.1876755999983,1205.111434999999,1207.1876755999983,1207.1876755999983,1207.1876755999983,0.006220700000994839,0.013095000002067536,100,shock,1,[1.090392800004338],[1.0903965000034077],1208.284870100004,1208.284870100004,0.007382299998425879,0.007382299998425879,0.01873660000273958,0.05345520000264514,0.06036970000423025,0.10203650000039488,0.1089942999969935,1.0047378000017488,1211.7777754999988,1215.749903200005,,,,,,,,,,,,,,,,,,,,,,,,,,,,,15,C,2023-12-08_16h49.07.936,gca_avoidance_task,2022.2.4,143.72214485093292,
positions.xlsx,stimuli.xlsx,stimuli/Social1.png,stimuli/Social2.png,stimuli/Nonsocial2.png,stimuli/Nonsocial1.png,,"(-0.7, -0.5)",cs_minus_s,,,,,0,0,0,0,,,,,,,,,2,2,34,5,,,,,,,,,,,,,,,,,,,,,,,,,,,,,,,,,,,,,,,,,,,,,,,,,,,,,,,,,,1216.2567700000072,1217.937220599997,1215.749903200005,1217.937220599997,1217.937220599997,1217.937220599997,0.006191899999976158,0.013016199998673983,105,reward,1,[0.4929827000014484],[0.4929866000020411],1218.4372105000075,1218.4372105000075,0.0069420999934664,0.0069420999934664,0.01871730000129901,0.05342110000492539,0.06033189999288879,0.10203389999514911,0.10901000000012573,1.0047347999934573,1221.9302224999992,1226.3606121000048,,,,,,,,,,,,,,,,,,,,,,,,,,,,,15,C,2023-12-08_16h49.07.936,gca_avoidance_task,2022.2.4,143.72214485093292,
positions.xlsx,stimuli.xlsx,stimuli/Social1.png,stimuli/Social2.png,stimuli/Nonsocial2.png,stimuli/Nonsocial1.png,,"(0.7, 0.5)",cs_minus_s,,,,,0,0,0,0,,,,,,,,,2,3,35,6,,,,,,,,,,,,,,,,,,,,,,,,,,,,,,,,,,,,,,,,,,,,,,,,,,,,,,,,,,1226.8674495000014,1228.4924077000032,1226.3606121000048,1228.4924077000032,1228.4924077000032,1228.4924077000032,0.006158300006063655,0.013053500006208196,110,reward,1,[0.840319000009913],[0.8472634000063408],1229.346529100003,1229.346529100003,0.0072284999914700165,0.0072284999914700165,0.018574199988506734,0.053236799998558126,0.06022839999059215,0.10184519999893382,0.10886300000129268,1.0046177999902284,1232.8394523000024,1237.2490640000033,,,,,,,,,,,,,,,,,,,,,,,,,,,,,15,C,2023-12-08_16h49.07.936,gca_avoidance_task,2022.2.4,143.72214485093292,
positions.xlsx,stimuli.xlsx,stimuli/Social1.png,stimuli/Social2.png,stimuli/Nonsocial2.png,stimuli/Nonsocial1.png,,"(0.7, -0.5)",cs_plus_ns,,,,,0,0,0,0,,,,,,,,,2,4,36,11,,,,,,,,,,,,,,,,,,,,,,,,,,,,,,,,,,,,,,,,,,,,,,,,,,,,,,,,,,1237.7559849999961,1239.3253297000047,1237.2490640000033,1239.3253297000047,1239.3253297000047,1239.3253297000047,0.006393799994839355,0.01319810000131838,110,none,0,,,1244.3390593000076,1244.3390593000076,0.015525299997534603,0.015525299997534603,0.02695250000397209,0.054596200003288686,0.06154609999794047,0.10322150000138208,0.11011449999932665,1.01291589999164,1247.8250284999958,1251.4984519999998,,,,,,,,,,,,,,,,,,,,,,,,,,,,,15,C,2023-12-08_16h49.07.936,gca_avoidance_task,2022.2.4,143.72214485093292,
positions.xlsx,stimuli.xlsx,stimuli/Social1.png,stimuli/Social2.png,stimuli/Nonsocial2.png,stimuli/Nonsocial1.png,,"(-0.7, -0.5)",cs_minus_ns,,,,,0,0,0,0,,,,,,,,,2,5,37,13,,,,,,,,,,,,,,,,,,,,,,,,,,,,,,,,,,,,,,,,,,,,,,,,,,,,,,,,,,1252.005350300009,1253.831671699998,1251.4984519999998,1253.831671699998,1253.831671699998,1253.831671699998,0.006797900001402013,0.013247399998363107,110,none,0,,,1258.838423699999,1258.838423699999,0.01404779999575112,0.01404779999575112,0.020032400003401563,0.05473030000575818,0.06165109999710694,0.10333080000418704,0.11034359999757726,1.0129872999968939,1262.3313597000088,1266.407631199996,,,,,,,,,,,,,,,,,,,,,,,,,,,,,15,C,2023-12-08_16h49.07.936,gca_avoidance_task,2022.2.4,143.72214485093292,
positions.xlsx,stimuli.xlsx,stimuli/Social1.png,stimuli/Social2.png,stimuli/Nonsocial2.png,stimuli/Nonsocial1.png,,"(-0.7, 0.5)",cs_plus_ns,,,,,0,0,0,0,,,,,,,,,2,6,38,8,,,,,,,,,,,,,,,,,,,,,,,,,,,,,,,,,,,,,,,,,,,,,,,,,,,,,,,,,,1266.914489600007,1268.6505711000063,1266.407631199996,1268.6505711000063,1268.6505711000063,1268.6505711000063,0.0060354000015649945,0.013171600003261119,110,shock,1,[2.0001784000050975],[2.00018230000569],1270.657428000006,1270.657428000006,0.008198199997423217,0.008198199997423217,0.018500899997889064,0.05320470000151545,0.06020089999947231,0.10178470000391826,0.10876489999645855,1.004514599990216,1274.1503446999996,1277.816852799995,,,,,,,,,,,,,,,,,,,,,,,,,,,,,15,C,2023-12-08_16h49.07.936,gca_avoidance_task,2022.2.4,143.72214485093292,
positions.xlsx,stimuli.xlsx,stimuli/Social1.png,stimuli/Social2.png,stimuli/Nonsocial2.png,stimuli/Nonsocial1.png,,"(0.7, -0.5)",cs_minus_s,,,,,0,0,0,0,,,,,,,,,2,7,39,7,,,,,,,,,,,,,,,,,,,,,,,,,,,,,,,,,,,,,,,,,,,,,,,,,,,,,,,,,,1278.323761000007,1279.9348613000038,1277.816852799995,1279.9348613000038,1279.9348613000038,1279.9348613000038,0.005600200005574152,0.013500200002454221,115,reward,1,[0.24335050000809133],[0.24335400000563823],1280.184805099998,1280.184805099998,0.006938700011232868,0.006938700011232868,0.01869040000019595,0.05340860001160763,0.0603844000142999,0.10196780000114813,0.10892930001136847,1.0047172000049613,1283.677754000004,1287.6081928000058,,,,,,,,,,,,,,,,,,,,,,,,,,,,,15,C,2023-12-08_16h49.07.936,gca_avoidance_task,2022.2.4,143.72214485093292,
positions.xlsx,stimuli.xlsx,stimuli/Social1.png,stimuli/Social2.png,stimuli/Nonsocial2.png,stimuli/Nonsocial1.png,,"(0.7, 0.5)",cs_plus_s,,,,,0,0,0,0,,,,,,,,,2,8,40,2,,,,,,,,,,,,,,,,,,,,,,,,,,,,,,,,,,,,,,,,,,,,,,,,,,,,,,,,,,1288.1150344000052,1289.9066617000062,1287.6081928000058,1289.9066617000062,1289.9066617000062,1289.9066617000062,0.00629309999931138,0.013286499990499578,115,none,0,,,1294.9133883000031,1294.9133883000031,0.013082199991913512,0.013082199991913512,0.020045099998242222,0.05467800000042189,0.061646699992707,0.1032915999967372,0.11027449999528471,1.013024999992922,1298.4063423000043,1302.1145615999994,,,,,,,,,,,,,,,,,,,,,,,,,,,,,15,C,2023-12-08_16h49.07.936,gca_avoidance_task,2022.2.4,143.72214485093292,
positions.xlsx,stimuli.xlsx,stimuli/Social1.png,stimuli/Social2.png,stimuli/Nonsocial2.png,stimuli/Nonsocial1.png,,"(0.7, 0.5)",cs_minus_ns,,,,,0,0,0,0,,,,,,,,,2,9,41,14,,,,,,,,,,,,,,,,,,,,,,,,,,,,,,,,,,,,,,,,,,,,,,,,,,,,,,,,,,1302.6214192000043,1303.8644316999998,1302.1145615999994,1303.8644316999998,1303.8644316999998,1303.8644316999998,0.006625099995289929,0.01324929999827873,120,reward,1,[1.0628942999901483],[1.0628979000030085],1304.9338847000035,1304.9338847000035,0.007333700006711297,0.007333700006711297,0.01826150000852067,0.05289840001205448,0.05991520000679884,0.10154080000938848,0.10843190000741743,1.0042328000126872,1308.4268193000025,1312.4752494999993,,,,,,,,,,,,,,,,,,,,,,,,,,,,,15,C,2023-12-08_16h49.07.936,gca_avoidance_task,2022.2.4,143.72214485093292,
positions.xlsx,stimuli.xlsx,stimuli/Social1.png,stimuli/Social2.png,stimuli/Nonsocial2.png,stimuli/Nonsocial1.png,,"(0.7, 0.5)",cs_plus_ns,,,,,0,0,0,0,,,,,,,,,2,10,42,10,,,,,,,,,,,,,,,,,,,,,,,,,,,,,,,,,,,,,,,,,,,,,,,,,,,,,,,,,,1312.982134100006,1314.5237597000087,1312.4752494999993,1314.5237597000087,1314.5237597000087,1314.5237597000087,0.00622569999541156,0.013093100002151914,120,none,0,,,1319.5374613000022,1319.5374613000022,0.014824800004134886,0.014824800004134886,0.02679119999811519,0.05445959999633487,0.06142759999784175,0.10312939999857917,0.11009129999729339,1.0128024000005098,1323.0234167000017,1327.0441491999954,,,,,,,,,,,,,,,,,,,,,,,,,,,,,15,C,2023-12-08_16h49.07.936,gca_avoidance_task,2022.2.4,143.72214485093292,
positions.xlsx,stimuli.xlsx,stimuli/Social1.png,stimuli/Social2.png,stimuli/Nonsocial2.png,stimuli/Nonsocial1.png,,"(-0.7, 0.5)",cs_plus_s,,,,,0,0,0,0,,,,,,,,,2,11,43,0,,,,,,,,,,,,,,,,,,,,,,,,,,,,,,,,,,,,,,,,,,,,,,,,,,,,,,,,,,1327.5510365000082,1329.043998699999,1327.0441491999954,1329.043998699999,1329.043998699999,1329.043998699999,0.005516899997019209,0.013489899996784516,120,none,0,,,1334.0507520999963,1334.0507520999963,0.01391370000783354,0.01391370000783354,0.02016840000578668,0.05492340000637341,0.061817099995096214,0.10347780000302009,0.11044800000672694,1.0131358000071486,1337.543671899999,1341.2519173000037,,,,,,,,,,,,,,,,,,,,,,,,,,,,,15,C,2023-12-08_16h49.07.936,gca_avoidance_task,2022.2.4,143.72214485093292,
positions.xlsx,stimuli.xlsx,stimuli/Social1.png,stimuli/Social2.png,stimuli/Nonsocial2.png,stimuli/Nonsocial1.png,,"(0.7, -0.5)",cs_minus_ns,,,,,0,0,0,0,,,,,,,,,2,12,44,15,,,,,,,,,,,,,,,,,,,,,,,,,,,,,,,,,,,,,,,,,,,,,,,,,,,,,,,,,,1341.7587867999973,1343.4878712000063,1341.2519173000037,1343.4878712000063,1343.4878712000063,1343.4878712000063,0.006474999987403862,0.013415599998552352,125,reward,1,[0.6670604999962961],[0.6670641999953659],1344.1614786999999,1344.1614786999999,0.007422599999699742,0.007422599999699742,0.018696600003750063,0.05340469999646302,0.06041649999679066,0.10196660000656266,0.10890839999774471,1.0047216000093613,1347.654441999999,1351.2515431000065,,,,,,,,,,,,,,,,,,,,,,,,,,,,,15,C,2023-12-08_16h49.07.936,gca_avoidance_task,2022.2.4,143.72214485093292,
positions.xlsx,stimuli.xlsx,stimuli/Social1.png,stimuli/Social2.png,stimuli/Nonsocial2.png,stimuli/Nonsocial1.png,,"(-0.7, 0.5)",cs_minus_ns,,,,,0,0,0,0,,,,,,,,,2,13,45,12,,,,,,,,,,,,,,,,,,,,,,,,,,,,,,,,,,,,,,,,,,,,,,,,,,,,,,,,,,1351.7584160999977,1353.4805395000003,1351.2515431000065,1353.4805395000003,1353.4805395000003,1353.4805395000003,0.0068245000002207235,0.013315899996086955,130,reward,1,[0.6670321999990847],[0.6670359999989159],1354.1541115,1354.1541115,0.007408099991152994,0.007408099991152994,0.0183614999987185,0.05312729999423027,0.06003639999835286,0.10168299998622388,0.1086551999906078,1.0044127999863122,1357.6471145999967,1361.167795500005,,,,,,,,,,,,,,,,,,,,,,,,,,,,,15,C,2023-12-08_16h49.07.936,gca_avoidance_task,2022.2.4,143.72214485093292,
positions.xlsx,stimuli.xlsx,stimuli/Social1.png,stimuli/Social2.png,stimuli/Nonsocial2.png,stimuli/Nonsocial1.png,,"(-0.7, -0.5)",cs_plus_ns,,,,,0,0,0,0,,,,,,,,,2,14,46,9,,,,,,,,,,,,,,,,,,,,,,,,,,,,,,,,,,,,,,,,,,,,,,,,,,,,,,,,,,1361.6746762999974,1363.4870873000036,1361.167795500005,1363.4870873000036,1363.4870873000036,1363.4870873000036,0.006451800014474429,0.013338400007341988,130,none,0,,,1368.4938320000074,1368.4938320000074,0.014090399999986403,0.014090399999986403,0.020090200006961823,0.05478070001117885,0.06178410000575241,0.1034125000005588,0.11034770001424477,1.0130818000034196,1371.9867768999975,1376.1186028000084,,,,,,,,,,,,,,,,,,,,,,,,,,,,,15,C,2023-12-08_16h49.07.936,gca_avoidance_task,2022.2.4,143.72214485093292,
positions.xlsx,stimuli.xlsx,stimuli/Social1.png,stimuli/Social2.png,stimuli/Nonsocial2.png,stimuli/Nonsocial1.png,,"(-0.7, -0.5)",cs_plus_s,,,,,0,0,0,0,,,,,,,,,2,15,47,1,,,,,,,,,,,,,,,,,,,,,,,,,,,,,,,,,,,,,,,,,,,,,,,,,,,,,,,,,,1376.6254733999958,1378.410120600005,1376.1186028000084,1378.410120600005,1378.410120600005,1378.410120600005,0.006229000005987473,0.013090100008412264,130,none,0,,,1383.4168432000006,1383.4168432000006,0.013380200005485676,0.013380200005485676,0.019913399999495596,0.05458429999998771,0.06153400000766851,0.10314870000001974,0.1101257000118494,1.0128460999985691,1386.9098606000043,1390.604102199999,,,,,,,,,,,,,,,,,,,,,,,,,,,,,15,C,2023-12-08_16h49.07.936,gca_avoidance_task,2022.2.4,143.72214485093292,
positions.xlsx,stimuli.xlsx,stimuli/Social1.png,stimuli/Social2.png,stimuli/Nonsocial2.png,stimuli/Nonsocial1.png,,"(0.7, -0.5)",cs_plus_s,,,,,0,0,0,0,,,,,,,,,3,0,48,3,,,,,,,,,,,,,,,,,,,,,,,,,,,,,,,,,,,,,,,,,,,,,,,,,,,,,,,,,,1391.1109968999954,1392.583208199998,1390.604102199999,1392.583208199998,1392.583208199998,1392.583208199998,0.005519999991520308,0.013039799989201128,130,none,0,,,1397.5899096000066,1397.5899096000066,0.013750400001299568,0.013750400001299568,0.019758900001761504,0.05448959999193903,0.06141219999699388,0.10306239999772515,0.1100053999980446,1.0127540999965277,1401.082915100007,1404.7910853000067,,,,,,,,,,,,,,,,,,,,,,,,,,,,,15,C,2023-12-08_16h49.07.936,gca_avoidance_task,2022.2.4,143.72214485093292,
positions.xlsx,stimuli.xlsx,stimuli/Social1.png,stimuli/Social2.png,stimuli/Nonsocial2.png,stimuli/Nonsocial1.png,,"(-0.7, 0.5)",cs_minus_ns,,,,,0,0,0,0,,,,,,,,,3,1,49,12,,,,,,,,,,,,,,,,,,,,,,,,,,,,,,,,,,,,,,,,,,,,,,,,,,,,,,,,,,1405.2979865000088,1406.6451493000059,1404.7910853000067,1406.6451493000059,1406.6451493000059,1406.6451493000059,0.006837299995822832,0.013271200004965067,135,reward,1,[0.4447848999989219],[0.4447885999979917],1407.0965640000068,1407.0965640000068,0.007817999998223968,0.007817999998223968,0.018257399991853163,0.05288289999589324,0.05981679999968037,0.10151119998772629,0.10849389999930281,1.0041997999942396,1410.589486500001,1414.1032322999963,,,,,,,,,,,,,,,,,,,,,,,,,,,,,15,C,2023-12-08_16h49.07.936,gca_avoidance_task,2022.2.4,143.72214485093292,
positions.xlsx,stimuli.xlsx,stimuli/Social1.png,stimuli/Social2.png,stimuli/Nonsocial2.png,stimuli/Nonsocial1.png,,"(-0.7, -0.5)",cs_plus_s,,,,,0,0,0,0,,,,,,,,,3,2,50,1,,,,,,,,,,,,,,,,,,,,,,,,,,,,,,,,,,,,,,,,,,,,,,,,,,,,,,,,,,1414.6101333999977,1416.505852900009,1414.1032322999963,1416.505852900009,1416.505852900009,1416.505852900009,0.005768299990450032,0.01345729999593459,135,none,0,,,1421.512593300009,1421.512593300009,0.013803099995129742,0.013803099995129742,0.0201762999931816,0.05486709999968298,0.06182309999712743,0.10356199998932425,0.11043319999589585,1.0131489999912446,1425.0056143999973,1428.7901203000074,,,,,,,,,,,,,,,,,,,,,,,,,,,,,15,C,2023-12-08_16h49.07.936,gca_avoidance_task,2022.2.4,143.72214485093292,
positions.xlsx,stimuli.xlsx,stimuli/Social1.png,stimuli/Social2.png,stimuli/Nonsocial2.png,stimuli/Nonsocial1.png,,"(-0.7, 0.5)",cs_plus_s,,,,,0,0,0,0,,,,,,,,,3,3,51,0,,,,,,,,,,,,,,,,,,,,,,,,,,,,,,,,,,,,,,,,,,,,,,,,,,,,,,,,,,1429.2970123999985,1430.9983315999998,1428.7901203000074,1430.9983315999998,1430.9983315999998,1430.9983315999998,0.006187799997860566,0.013085600003250875,135,none,0,,,1436.0050811999972,1436.0050811999972,0.013083400001050904,0.013083400001050904,0.01983960000507068,0.05451679999532644,0.061579699991852976,0.10311149999324698,0.1101042999944184,1.0127915999910329,1439.4980498000077,1443.9839855000027,,,,,,,,,,,,,,,,,,,,,,,,,,,,,15,C,2023-12-08_16h49.07.936,gca_avoidance_task,2022.2.4,143.72214485093292,
positions.xlsx,stimuli.xlsx,stimuli/Social1.png,stimuli/Social2.png,stimuli/Nonsocial2.png,stimuli/Nonsocial1.png,,"(-0.7, -0.5)",cs_minus_ns,,,,,0,0,0,0,,,,,,,,,3,4,52,13,,,,,,,,,,,,,,,,,,,,,,,,,,,,,,,,,,,,,,,,,,,,,,,,,,,,,,,,,,1444.4908526000072,1445.5186473000067,1443.9839855000027,1445.5186473000067,1445.5186473000067,1445.5186473000067,0.007314499991480261,0.013099299991154112,140,reward,1,[0.41678079999110196],[0.4167845999909332],1445.9422731000086,1445.9422731000086,0.007776599988574162,0.007776599988574162,0.0182821999915177,0.05282749999605585,0.05984449999232311,0.10144249998847954,0.10843399999430403,1.0041809999966063,1449.4351832999964,1453.414169399999,,,,,,,,,,,,,,,,,,,,,,,,,,,,,15,C,2023-12-08_16h49.07.936,gca_avoidance_task,2022.2.4,143.72214485093292,
positions.xlsx,stimuli.xlsx,stimuli/Social1.png,stimuli/Social2.png,stimuli/Nonsocial2.png,stimuli/Nonsocial1.png,,"(0.7, -0.5)",cs_minus_ns,,,,,0,0,0,0,,,,,,,,,3,5,53,15,,,,,,,,,,,,,,,,,,,,,,,,,,,,,,,,,,,,,,,,,,,,,,,,,,,,,,,,,,1453.9211486999993,1455.802918100002,1453.414169399999,1455.802918100002,1455.802918100002,1455.802918100002,0.007010100001934916,0.012972500000614673,145,reward,1,[0.38878540000587236],[0.3887890000041807],1456.1987757000024,1456.1987757000024,0.007718299995758571,0.007718299995758571,0.01880009999149479,0.053423599994857796,0.06038349999289494,0.10199439999996684,0.10897269999259152,1.00473429998965,1459.6916632000066,1463.4623827000032,,,,,,,,,,,,,,,,,,,,,,,,,,,,,15,C,2023-12-08_16h49.07.936,gca_avoidance_task,2022.2.4,143.72214485093292,
positions.xlsx,stimuli.xlsx,stimuli/Social1.png,stimuli/Social2.png,stimuli/Nonsocial2.png,stimuli/Nonsocial1.png,,"(-0.7, -0.5)",cs_minus_s,,,,,0,0,0,0,,,,,,,,,3,6,54,5,,,,,,,,,,,,,,,,,,,,,,,,,,,,,,,,,,,,,,,,,,,,,,,,,,,,,,,,,,1463.969262700004,1465.0525674000091,1463.4623827000032,1465.0525674000091,1465.0525674000091,1465.0525674000091,0.005903199999011122,0.013253400000394322,150,reward,1,[0.39597860000503715],[0.39598210000258405],1465.4553213000036,1465.4553213000036,0.007280299992999062,0.007280299992999062,0.018093899998348206,0.052735999997821636,0.059733699992648326,0.10137509999913163,0.10837249999167398,1.0040809999918565,1468.948304000005,1473.2189565000008,,,,,,,,,,,,,,,,,,,,,,,,,,,,,15,C,2023-12-08_16h49.07.936,gca_avoidance_task,2022.2.4,143.72214485093292,
positions.xlsx,stimuli.xlsx,stimuli/Social1.png,stimuli/Social2.png,stimuli/Nonsocial2.png,stimuli/Nonsocial1.png,,"(0.7, 0.5)",cs_minus_s,,,,,0,0,0,0,,,,,,,,,3,7,55,6,,,,,,,,,,,,,,,,,,,,,,,,,,,,,,,,,,,,,,,,,,,,,,,,,,,,,,,,,,1473.7258404000022,1475.503537800003,1473.2189565000008,1475.503537800003,1475.503537800003,1475.503537800003,0.005874299997230992,0.012929699994856492,155,reward,1,[0.5416257000033511],[0.5416297000047052],1476.052146300004,1476.052146300004,0.008065999994869344,0.008065999994869344,0.018142100001568906,0.05280629999469966,0.059777000002213754,0.10140650000539608,0.10840379999717698,1.0041584999999031,1479.545087400009,1483.4755023000034,,,,,,,,,,,,,,,,,,,,,,,,,,,,,15,C,2023-12-08_16h49.07.936,gca_avoidance_task,2022.2.4,143.72214485093292,
positions.xlsx,stimuli.xlsx,stimuli/Social1.png,stimuli/Social2.png,stimuli/Nonsocial2.png,stimuli/Nonsocial1.png,,"(-0.7, 0.5)",cs_minus_s,,,,,0,0,0,0,,,,,,,,,3,8,56,4,,,,,,,,,,,,,,,,,,,,,,,,,,,,,,,,,,,,,,,,,,,,,,,,,,,,,,,,,,1483.982371200007,1485.4337049000023,1483.4755023000034,1485.4337049000023,1485.4337049000023,1485.4337049000023,0.008069900010013953,0.013180100009776652,160,reward,1,[0.430553800004418],[0.43055720000120346],1485.8711928999983,1485.8711928999983,0.0076182000047992915,0.0076182000047992915,0.01861060000373982,0.0532865999994101,0.06021820000023581,0.10191640000266489,0.10883660000399686,1.0046428000059677,1489.364168400003,1493.655646500003,,,,,,,,,,,,,,,,,,,,,,,,,,,,,15,C,2023-12-08_16h49.07.936,gca_avoidance_task,2022.2.4,143.72214485093292,
positions.xlsx,stimuli.xlsx,stimuli/Social1.png,stimuli/Social2.png,stimuli/Nonsocial2.png,stimuli/Nonsocial1.png,,"(0.7, 0.5)",cs_plus_s,,,,,0,0,0,0,,,,,,,,,3,9,57,2,,,,,,,,,,,,,,,,,,,,,,,,,,,,,,,,,,,,,,,,,,,,,,,,,,,,,,,,,,1494.162515899996,1495.3638975000067,1493.655646500003,1495.3638975000067,1495.3638975000067,1495.3638975000067,0.0058979000023100525,0.01337960000091698,160,shock,1,[0.3338052000035532],[0.3338090000033844],1495.7041642999975,1495.7041642999975,0.007935000001452863,0.007935000001452863,0.01838760000828188,0.05303150000690948,0.059987400003592484,0.10168449999764562,0.10862329999508802,1.0044180999975652,1499.1971263000014,1503.4121409000072,,,,,,,,,,,,,,,,,,,,,,,,,,,,,15,C,2023-12-08_16h49.07.936,gca_avoidance_task,2022.2.4,143.72214485093292,
positions.xlsx,stimuli.xlsx,stimuli/Social1.png,stimuli/Social2.png,stimuli/Nonsocial2.png,stimuli/Nonsocial1.png,,"(0.7, -0.5)",cs_plus_ns,,,,,0,0,0,0,,,,,,,,,3,10,58,11,,,,,,,,,,,,,,,,,,,,,,,,,,,,,,,,,,,,,,,,,,,,,,,,,,,,,,,,,,1503.9191048000066,1505.1690531000058,1503.4121409000072,1505.1690531000058,1505.1690531000058,1505.1690531000058,0.006181799995829351,0.013367699997616,160,shock,1,[0.528350299995509],[0.5283539999945788],1505.7038048999966,1505.7038048999966,0.008312299993121997,0.008312299993121997,0.018575800000689924,0.05315699998755008,0.06014139999751933,0.10177480000129435,0.10874899999180343,1.0045006000000285,1509.196749900002,1512.9048848999955,,,,,,,,,,,,,,,,,,,,,,,,,,,,,15,C,2023-12-08_16h49.07.936,gca_avoidance_task,2022.2.4,143.72214485093292,
positions.xlsx,stimuli.xlsx,stimuli/Social1.png,stimuli/Social2.png,stimuli/Nonsocial2.png,stimuli/Nonsocial1.png,,"(-0.7, -0.5)",cs_plus_ns,,,,,0,0,0,0,,,,,,,,,3,11,59,9,,,,,,,,,,,,,,,,,,,,,,,,,,,,,,,,,,,,,,,,,,,,,,,,,,,,,,,,,,1513.4117807000002,1515.2172540000029,1512.9048848999955,1515.2172540000029,1515.2172540000029,1515.2172540000029,0.007114399995771237,0.013511099998140708,160,none,0,,,1520.224007900004,1520.224007900004,0.014201400001184084,0.014201400001184084,0.020256200004951097,0.05494360000011511,0.061886800001957454,0.1035766999993939,0.11055169999599457,1.0132166999974288,1523.717002400008,1527.3418433000043,,,,,,,,,,,,,,,,,,,,,,,,,,,,,15,C,2023-12-08_16h49.07.936,gca_avoidance_task,2022.2.4,143.72214485093292,
positions.xlsx,stimuli.xlsx,stimuli/Social1.png,stimuli/Social2.png,stimuli/Nonsocial2.png,stimuli/Nonsocial1.png,,"(0.7, -0.5)",cs_minus_s,,,,,0,0,0,0,,,,,,,,,3,12,60,7,,,,,,,,,,,,,,,,,,,,,,,,,,,,,,,,,,,,,,,,,,,,,,,,,,,,,,,,,,1527.8487400000013,1528.8695154000015,1527.3418433000043,1528.8695154000015,1528.8695154000015,1528.8695154000015,0.00638430000981316,0.013395700007095002,165,reward,1,[0.4934242000017548],[0.49342800000158604],1529.3695102000056,1529.3695102000056,0.007884000006015413,0.007884000006015413,0.01856019999831915,0.053211800011922605,0.06020380000700243,0.10181050001119729,0.10875949999899603,1.0045735000021523,1532.862469300002,1537.0150781999982,,,,,,,,,,,,,,,,,,,,,,,,,,,,,15,C,2023-12-08_16h49.07.936,gca_avoidance_task,2022.2.4,143.72214485093292,
positions.xlsx,stimuli.xlsx,stimuli/Social1.png,stimuli/Social2.png,stimuli/Nonsocial2.png,stimuli/Nonsocial1.png,,"(0.7, 0.5)",cs_minus_ns,,,,,0,0,0,0,,,,,,,,,3,13,61,14,,,,,,,,,,,,,,,,,,,,,,,,,,,,,,,,,,,,,,,,,,,,,,,,,,,,,,,,,,1537.5219450000004,1539.3690915000043,1537.0150781999982,1539.3690915000043,1539.3690915000043,1539.3690915000043,0.007544499996583909,0.01312329999927897,170,reward,1,[0.5695421999989776],[0.5695458999980474],1539.9454820999963,1539.9454820999963,0.0075527000008150935,0.0075527000008150935,0.01886660000309348,0.0534509999997681,0.060492500007967465,0.10204540000995621,0.10908480000216514,1.0048224000056507,1543.4384201000066,1547.3826955999975,,,,,,,,,,,,,,,,,,,,,,,,,,,,,15,C,2023-12-08_16h49.07.936,gca_avoidance_task,2022.2.4,143.72214485093292,
positions.xlsx,stimuli.xlsx,stimuli/Social1.png,stimuli/Social2.png,stimuli/Nonsocial2.png,stimuli/Nonsocial1.png,,"(0.7, 0.5)",cs_plus_ns,,,,,0,0,0,0,,,,,,,,,3,14,62,10,,,,,,,,,,,,,,,,,,,,,,,,,,,,,,,,,,,,,,,,,,,,,,,,,,,,,,,,,,1547.8896548000048,1549.5839867000032,1547.3826955999975,1549.5839867000032,1549.5839867000032,1549.5839867000032,0.006601699991733767,0.013469400000758469,170,none,0,,,1554.5907374999952,1554.5907374999952,0.014561799995135516,0.014561799995135516,0.020222699997248128,0.054853599998750724,0.06183329998748377,0.10352019999118056,0.11047549999784678,1.0131640999898082,1558.0836666999967,1562.5696018000017,,,,,,,,,,,,,,,,,,,,,,,,,,,,,15,C,2023-12-08_16h49.07.936,gca_avoidance_task,2022.2.4,143.72214485093292,
positions.xlsx,stimuli.xlsx,stimuli/Social1.png,stimuli/Social2.png,stimuli/Nonsocial2.png,stimuli/Nonsocial1.png,,"(-0.7, 0.5)",cs_plus_ns,,,,,0,0,0,0,,,,,,,,,3,15,63,8,,,,,,,,,,,,,,,,,,,,,,,,,,,,,,,,,,,,,,,,,,,,,,,,,,,,,,,,,,1563.0765106000035,1564.833381999997,1562.5696018000017,1564.833381999997,1564.833381999997,1564.833381999997,0.006579699998837896,0.013173400002415292,170,none,0,,,1569.8401464000053,1569.8401464000053,0.013889399997424334,0.013889399997424334,0.019996200004243292,0.054601600000751205,0.06161199999041855,0.10323130000324454,0.11019320000195876,1.0129182999953628,1573.3330675000034,1577.180163099998,,,,,,,,,,,,,,,,,,,,,,,,,,,,,15,C,2023-12-08_16h49.07.936,gca_avoidance_task,2022.2.4,143.72214485093292,
positions.xlsx,stimuli.xlsx,stimuli/Social1.png,stimuli/Social2.png,stimuli/Nonsocial2.png,stimuli/Nonsocial1.png,,"(0.7, -0.5)",cs_plus_s,,,,,0,0,0,0,,,,,,,,,4,0,64,3,,,,,,,,,,,,,,,,,,,,,,,,,,,,,,,,,,,,,,,,,,,,,,,,,,,,,,,,,,1577.6870330999955,1579.4716865000082,1577.180163099998,1579.4716865000082,1579.4716865000082,1579.4716865000082,0.005965000003925525,0.013097200004267506,170,none,0,,,1584.4784418000054,1584.4784418000054,0.013571800009231083,0.013571800009231083,0.019862000001012348,0.054543999998713844,0.06153300000005402,0.10313570000289474,0.11014020000584424,1.012835300003644,1587.9714258000022,1591.9573644000047,,,,,,,,,,,,,,,,,,,,,,,,,,,,,15,C,2023-12-08_16h49.07.936,gca_avoidance_task,2022.2.4,143.72214485093292,
positions.xlsx,stimuli.xlsx,stimuli/Social1.png,stimuli/Social2.png,stimuli/Nonsocial2.png,stimuli/Nonsocial1.png,,"(-0.7, -0.5)",cs_minus_ns,,,,,0,0,0,0,,,,,,,,,4,1,65,13,,,,,,,,,,,,,,,,,,,,,,,,,,,,,,,,,,,,,,,,,,,,,,,,,,,,,,,,,,1592.464290200005,1593.860008100004,1591.9573644000047,1593.860008100004,1593.860008100004,1593.860008100004,0.006773600005544722,0.013568900001700968,175,reward,1,[0.604970799991861],[0.6049746000062441],1594.471141300004,1594.471141300004,0.008134399991831742,0.008134399991831742,0.018295499990927055,0.05289149998861831,0.05985710000095423,0.10151599999517202,0.10847709998779465,1.0042413999908604,1597.9640593000076,1602.1513651999994,,,,,,,,,,,,,,,,,,,,,,,,,,,,,15,C,2023-12-08_16h49.07.936,gca_avoidance_task,2022.2.4,143.72214485093292,
positions.xlsx,stimuli.xlsx,stimuli/Social1.png,stimuli/Social2.png,stimuli/Nonsocial2.png,stimuli/Nonsocial1.png,,"(-0.7, 0.5)",cs_minus_s,,,,,0,0,0,0,,,,,,,,,4,2,66,4,,,,,,,,,,,,,,,,,,,,,,,,,,,,,,,,,,,,,,,,,,,,,,,,,,,,,,,,,,1602.6583343999955,1603.7346510000061,1602.1513651999994,1603.7346510000061,1603.7346510000061,1603.7346510000061,0.006052299999282695,0.013511899989680387,180,reward,1,[0.6531055999948876],[0.6531091999931959],1604.394338099999,1604.394338099999,0.007651599997188896,0.007651599997188896,0.01842729999043513,0.05313229998864699,0.060059600000386126,0.10172759999113623,0.1087307999987388,1.0044502999953693,1607.8872581000032,1611.5954976000066,,,,,,,,,,,,,,,,,,,,,,,,,,,,,15,C,2023-12-08_16h49.07.936,gca_avoidance_task,2022.2.4,143.72214485093292,
positions.xlsx,stimuli.xlsx,stimuli/Social1.png,stimuli/Social2.png,stimuli/Nonsocial2.png,stimuli/Nonsocial1.png,,"(0.7, -0.5)",cs_minus_s,,,,,0,0,0,0,,,,,,,,,4,3,67,7,,,,,,,,,,,,,,,,,,,,,,,,,,,,,,,,,,,,,,,,,,,,,,,,,,,,,,,,,,1612.1023256000044,1613.400918200001,1611.5954976000066,1613.400918200001,1613.400918200001,1613.400918200001,0.005668300000252202,0.013487999996868894,185,reward,1,[0.4517833999998402],[0.4517868999973871],1613.8592489000002,1613.8592489000002,0.006561099988175556,0.006561099988175556,0.01845849999517668,0.053107399988221005,0.060041299992008135,0.10168659999908414,0.10867389998747967,1.0044855999876745,1617.3522197999991,1621.4631735000003,,,,,,,,,,,,,,,,,,,,,,,,,,,,,15,C,2023-12-08_16h49.07.936,gca_avoidance_task,2022.2.4,143.72214485093292,
positions.xlsx,stimuli.xlsx,stimuli/Social1.png,stimuli/Social2.png,stimuli/Nonsocial2.png,stimuli/Nonsocial1.png,,"(-0.7, 0.5)",cs_plus_s,,,,,0,0,0,0,,,,,,,,,4,4,68,0,,,,,,,,,,,,,,,,,,,,,,,,,,,,,,,,,,,,,,,,,,,,,,,,,,,,,,,,,,1621.9700207999995,1623.6574905000016,1621.4631735000003,1623.6574905000016,1623.6574905000016,1623.6574905000016,0.005967599994619377,0.013176099993870594,185,none,0,,,1628.6642569999967,1628.6642569999967,0.013470299993059598,0.013470299993059598,0.01993929999298416,0.054582999990088865,0.06146549999539275,0.10320469998987392,0.11013659999298397,1.0128384999989066,1632.157157099995,1636.0944981000066,,,,,,,,,,,,,,,,,,,,,,,,,,,,,15,C,2023-12-08_16h49.07.936,gca_avoidance_task,2022.2.4,143.72214485093292,
positions.xlsx,stimuli.xlsx,stimuli/Social1.png,stimuli/Social2.png,stimuli/Nonsocial2.png,stimuli/Nonsocial1.png,,"(0.7, 0.5)",cs_plus_ns,,,,,0,0,0,0,,,,,,,,,4,5,69,10,,,,,,,,,,,,,,,,,,,,,,,,,,,,,,,,,,,,,,,,,,,,,,,,,,,,,,,,,,1636.601409099996,1638.5249492000003,1636.0944981000066,1638.5249492000003,1638.5249492000003,1638.5249492000003,0.006317299994407222,0.01328250000369735,185,none,0,,,1643.5317121999979,1643.5317121999979,0.013877599994884804,0.013877599994884804,0.020048899998073466,0.054703799993149005,0.06164479999279138,0.10326669999631122,0.11025399999925867,1.0129984999948647,1647.0246092000016,1650.989760700002,,,,,,,,,,,,,,,,,,,,,,,,,,,,,15,C,2023-12-08_16h49.07.936,gca_avoidance_task,2022.2.4,143.72214485093292,
positions.xlsx,stimuli.xlsx,stimuli/Social1.png,stimuli/Social2.png,stimuli/Nonsocial2.png,stimuli/Nonsocial1.png,,"(0.7, 0.5)",cs_minus_ns,,,,,0,0,0,0,,,,,,,,,4,6,70,14,,,,,,,,,,,,,,,,,,,,,,,,,,,,,,,,,,,,,,,,,,,,,,,,,,,,,,,,,,1651.4966378999961,1652.711912400002,1650.989760700002,1652.711912400002,1652.711912400002,1652.711912400002,0.0068657000083476305,0.013133200001902878,190,reward,1,[0.604262100008782],[0.6042657000070903],1653.3229882000014,1653.3229882000014,0.00778580000041984,0.00778580000041984,0.018377699991106056,0.05303789999743458,0.06000749999657273,0.10165729999425821,0.10863449999305885,1.0044730999943567,1656.8159510999976,1660.9893861000019,,,,,,,,,,,,,,,,,,,,,,,,,,,,,15,C,2023-12-08_16h49.07.936,gca_avoidance_task,2022.2.4,143.72214485093292,
positions.xlsx,stimuli.xlsx,stimuli/Social1.png,stimuli/Social2.png,stimuli/Nonsocial2.png,stimuli/Nonsocial1.png,,"(-0.7, 0.5)",cs_plus_ns,,,,,0,0,0,0,,,,,,,,,4,7,71,8,,,,,,,,,,,,,,,,,,,,,,,,,,,,,,,,,,,,,,,,,,,,,,,,,,,,,,,,,,1661.4962579999992,1662.6073281999998,1660.9893861000019,1662.6073281999998,1662.6073281999998,1662.6073281999998,0.0061698999925283715,0.013403799996012822,190,none,0,,,1667.6210419999989,1667.6210419999989,0.013999499991768971,0.013999499991768971,0.027154700001119636,0.05489149999630172,0.06179819999670144,0.10346909999498166,0.11041829999885522,1.0131602000037674,1671.1070655000076,1674.8707939000014,,,,,,,,,,,,,,,,,,,,,,,,,,,,,15,C,2023-12-08_16h49.07.936,gca_avoidance_task,2022.2.4,143.72214485093292,
positions.xlsx,stimuli.xlsx,stimuli/Social1.png,stimuli/Social2.png,stimuli/Nonsocial2.png,stimuli/Nonsocial1.png,,"(0.7, -0.5)",cs_minus_ns,,,,,0,0,0,0,,,,,,,,,4,8,72,15,,,,,,,,,,,,,,,,,,,,,,,,,,,,,,,,,,,,,,,,,,,,,,,,,,,,,,,,,,1675.3776283000043,1676.898440200006,1674.8707939000014,1676.898440200006,1676.898440200006,1676.898440200006,0.006556099993758835,0.013366500003030524,195,reward,1,[0.4168721000023652],[0.423803500001668],1677.3289976000087,1677.3289976000087,0.007704100004048087,0.007704100004048087,0.018819600009010173,0.053423000004841015,0.06041859999822918,0.10203930000716355,0.10904910000681411,1.0047752000100445,1680.821928999998,1684.3634621000092,,,,,,,,,,,,,,,,,,,,,,,,,,,,,15,C,2023-12-08_16h49.07.936,gca_avoidance_task,2022.2.4,143.72214485093292,
positions.xlsx,stimuli.xlsx,stimuli/Social1.png,stimuli/Social2.png,stimuli/Nonsocial2.png,stimuli/Nonsocial1.png,,"(0.7, 0.5)",cs_plus_s,,,,,0,0,0,0,,,,,,,,,4,9,73,2,,,,,,,,,,,,,,,,,,,,,,,,,,,,,,,,,,,,,,,,,,,,,,,,,,,,,,,,,,1684.8703373000026,1686.1064346000057,1684.3634621000092,1686.1064346000057,1686.1064346000057,1686.1064346000057,0.005707400006940588,0.013136100009432994,195,none,0,,,1691.1131507999962,1691.1131507999962,0.013269300005049445,0.013269300005049445,0.019860400003381073,0.05455159999837633,0.061516400004620664,0.10317450000729878,0.11009940000076313,1.0129194000037387,1694.6061291000078,1698.1476734000025,,,,,,,,,,,,,,,,,,,,,,,,,,,,,15,C,2023-12-08_16h49.07.936,gca_avoidance_task,2022.2.4,143.72214485093292,
positions.xlsx,stimuli.xlsx,stimuli/Social1.png,stimuli/Social2.png,stimuli/Nonsocial2.png,stimuli/Nonsocial1.png,,"(-0.7, -0.5)",cs_minus_s,,,,,0,0,0,0,,,,,,,,,4,10,74,5,,,,,,,,,,,,,,,,,,,,,,,,,,,,,,,,,,,,,,,,,,,,,,,,,,,,,,,,,,1698.654525200007,1699.904499199998,1698.1476734000025,1699.904499199998,1699.904499199998,1699.904499199998,0.005794800003059208,0.013266699999803677,200,reward,1,[0.45156560000032187],[0.4515691999986302],1700.3628092,1700.3628092,0.006843999988632277,0.006843999988632277,0.01845319999847561,0.05313679999380838,0.0601126999972621,0.10172459999739658,0.108689399989089,1.0044689999922412,1703.8557008000062,1707.432025800008,,,,,,,,,,,,,,,,,,,,,,,,,,,,,15,C,2023-12-08_16h49.07.936,gca_avoidance_task,2022.2.4,143.72214485093292,
positions.xlsx,stimuli.xlsx,stimuli/Social1.png,stimuli/Social2.png,stimuli/Nonsocial2.png,stimuli/Nonsocial1.png,,"(-0.7, 0.5)",cs_minus_ns,,,,,0,0,0,0,,,,,,,,,4,11,75,12,,,,,,,,,,,,,,,,,,,,,,,,,,,,,,,,,,,,,,,,,,,,,,,,,,,,,,,,,,1707.9388799000008,1708.9874666999967,1707.432025800008,1708.9874666999967,1708.9874666999967,1708.9874666999967,0.006358399987220764,0.013357299991184846,205,reward,1,[0.618353699988802],[0.6183573999878718],1709.6124513999966,1709.6124513999966,0.007260200000018813,0.007260200000018813,0.018744700006209314,0.05338330000813585,0.06036370000219904,0.10202249999565538,0.10893800000485498,1.0047671000065748,1713.105383400005,1716.8483201000054,,,,,,,,,,,,,,,,,,,,,,,,,,,,,15,C,2023-12-08_16h49.07.936,gca_avoidance_task,2022.2.4,143.72214485093292,
positions.xlsx,stimuli.xlsx,stimuli/Social1.png,stimuli/Social2.png,stimuli/Nonsocial2.png,stimuli/Nonsocial1.png,,"(-0.7, -0.5)",cs_plus_s,,,,,0,0,0,0,,,,,,,,,4,12,76,1,,,,,,,,,,,,,,,,,,,,,,,,,,,,,,,,,,,,,,,,,,,,,,,,,,,,,,,,,,1717.3551852999954,1718.6051366000029,1716.8483201000054,1718.6051366000029,1718.6051366000029,1718.6051366000029,0.005688099990948103,0.012933699996210635,205,none,0,,,1723.611905800004,1723.611905800004,0.013167999990400858,0.013167999990400858,0.019737599999643862,0.054398399995989166,0.06134969998674933,0.10302099998807535,0.1099675000004936,1.0126656999927945,1727.1048250000022,1731.4866493000009,,,,,,,,,,,,,,,,,,,,,,,,,,,,,15,C,2023-12-08_16h49.07.936,gca_avoidance_task,2022.2.4,143.72214485093292,
positions.xlsx,stimuli.xlsx,stimuli/Social1.png,stimuli/Social2.png,stimuli/Nonsocial2.png,stimuli/Nonsocial1.png,,"(0.7, 0.5)",cs_minus_s,,,,,0,0,0,0,,,,,,,,,4,13,77,6,,,,,,,,,,,,,,,,,,,,,,,,,,,,,,,,,,,,,,,,,,,,,,,,,,,,,,,,,,1731.993506400002,1733.0073577000003,1731.4866493000009,1733.0073577000003,1733.0073577000003,1733.0073577000003,0.005888500003493391,0.013088599996990524,210,reward,1,[0.5627891000040108],[0.5627930000046035],1733.5767906999972,1733.5767906999972,0.006889299998874776,0.006889299998874776,0.01828449999447912,0.05294789999607019,0.059905699992668815,0.10154049999255221,0.10852850000082981,1.0042921999993268,1737.069704900001,1741.2709504000086,,,,,,,,,,,,,,,,,,,,,,,,,,,,,15,C,2023-12-08_16h49.07.936,gca_avoidance_task,2022.2.4,143.72214485093292,
positions.xlsx,stimuli.xlsx,stimuli/Social1.png,stimuli/Social2.png,stimuli/Nonsocial2.png,stimuli/Nonsocial1.png,,"(0.7, -0.5)",cs_plus_ns,,,,,0,0,0,0,,,,,,,,,4,14,78,11,,,,,,,,,,,,,,,,,,,,,,,,,,,,,,,,,,,,,,,,,,,,,,,,,,,,,,,,,,1741.7778819000087,1743.562508700008,1741.2709504000086,1743.562508700008,1743.562508700008,1743.562508700008,0.006476700000348501,0.0133988000015961,210,none,0,,,1748.5693010999967,1748.5693010999967,0.01463309999962803,0.01463309999962803,0.020198300000629388,0.05487199999333825,0.061790299994754605,0.10343410000496078,0.110412299996824,1.0131607999937842,1752.062232700002,1755.7634580000013,,,,,,,,,,,,,,,,,,,,,,,,,,,,,15,C,2023-12-08_16h49.07.936,gca_avoidance_task,2022.2.4,143.72214485093292,
positions.xlsx,stimuli.xlsx,stimuli/Social1.png,stimuli/Social2.png,stimuli/Nonsocial2.png,stimuli/Nonsocial1.png,,"(-0.7, -0.5)",cs_plus_ns,,,,,0,0,0,0,,,,,,,,,4,15,79,9,,,,,,,,,,,,,,,,,,,,,,,,,,,,,,,,,,,,,,,,,,,,,,,,,,,,,,,,,,1756.270348200007,1757.8188576999964,1755.7634580000013,1757.8188576999964,1757.8188576999964,1757.8188576999964,0.0064584000065224245,0.01308620000781957,210,none,0,,,1762.8256384999986,1762.8256384999986,0.013376400005654432,0.013376400005654432,0.019867499999236315,0.05459359999804292,0.06151700000918936,0.10314540000399575,0.11010309999983292,1.0128407000011066,1766.3186005000025,1769.839272600002,,,,,,,,,,,,,,,,,,,,,,,,,,,,,15,C,2023-12-08_16h49.07.936,gca_avoidance_task,2022.2.4,143.72214485093292,
positions.xlsx,stimuli.xlsx,stimuli/Social1.png,stimuli/Social2.png,stimuli/Nonsocial2.png,stimuli/Nonsocial1.png,cs_plus_s,,,,,,,0,0,0,0,,,,,,,,,,,,,0,0,0,0,,,,,,,,,,,,,,,,,,,,,,,,,,,,,,,,,,,,,,,,,,,1778.6375323999964,1778.6375323999964,1787.748277400009,6.0,9.100607500004116,space,1.6052707000053488,,,,,,,,,,,,,,,,,,,,,,,,,,,,,,,,,,,,1769.839272600002,1769.839272600002,1769.839272600002,1769.839272600002,1769.839272600002,1769.839272600002,1777.311183400001,6.0,7.46580280001217,space,1.2814435999898706,,,,,,,,,,,,15,C,2023-12-08_16h49.07.936,gca_avoidance_task,2022.2.4,143.72214485093292,
positions.xlsx,stimuli.xlsx,stimuli/Social1.png,stimuli/Social2.png,stimuli/Nonsocial2.png,stimuli/Nonsocial1.png,cs_minus_ns,,,,,,,0,0,0,0,,,,,,,,,,,,,0,1,1,3,,,,,,,,,,,,,,,,,,,,,,,,,,,,,,,,,,,,,,,,,,,1789.3871056000062,1789.3871056000062,1795.5257511999953,7.0,6.13226399999985,space,2.1553511999954935,,,,,,,,,,,,,,,,,,,,,,,,,,,,,,,,,,,,,,,,,,,,,,,,,,,,,,,,,,15,C,2023-12-08_16h49.07.936,gca_avoidance_task,2022.2.4,143.72214485093292,
positions.xlsx,stimuli.xlsx,stimuli/Social1.png,stimuli/Social2.png,stimuli/Nonsocial2.png,stimuli/Nonsocial1.png,cs_minus_s,,,,,,,0,0,0,0,,,,,,,,,,,,,0,2,2,2,,,,,,,,,,,,,,,,,,,,,,,,,,,,,,,,,,,,,,,,,,,1797.713208400004,1797.713208400004,1801.0741395000077,6.0,3.341731599997729,space,1.1832089999952586,,,,,,,,,,,,,,,,,,,,,,,,,,,,,,,,,,,,,,,,,,,,,,,,,,,,,,,,,,15,C,2023-12-08_16h49.07.936,gca_avoidance_task,2022.2.4,143.72214485093292,
positions.xlsx,stimuli.xlsx,stimuli/Social1.png,stimuli/Social2.png,stimuli/Nonsocial2.png,stimuli/Nonsocial1.png,cs_plus_ns,,,,,,,0,0,0,0,,,,,,,,,,,,,0,3,3,1,,,,,,,,,,,,,,,,,,,,,,,,,,,,,,,,,,,,,,,,,,,1802.2894075000077,1802.2894075000077,1804.7685169000033,3.0,2.4725187000003643,space,1.736797800011118,,,,,,,,,,,,,,,,,,,,,,,,,,,,,,,,,,,,,,,,,,,,,,,,,,,,,,,,,,15,C,2023-12-08_16h49.07.936,gca_avoidance_task,2022.2.4,143.72214485093292,
positions.xlsx,stimuli.xlsx,stimuli/Social1.png,stimuli/Social2.png,stimuli/Nonsocial2.png,stimuli/Nonsocial1.png,cs_minus_s,,,,,,,0,0,0,0,,,,,,,,,,,,,,,,,0,0,0,2,,,,,,,,,,,,,,,,,,,,,,,,,,,,,,,,,,,,,,,,,,,,,,,,,,,,1810.4557343000051,,,,,,,,,,,,,,,,,,,,,1821.4553970999987,1825.1357994999998,,,,,,,,,,,,,,,,,,1806.5253402999952,1806.5253402999952,space,3.4120974999968894,1810.9695934000047,1810.9695934000047,0.02065079999738373,0.02699420000135433,5,"[0.021380399994086474, 4.43740070000058, 7.152447700005723, 7.96497640000598, 8.742738100001588]","[4.305389800007106, 7.034334299998591, 7.812085500001558, 8.582854599997518, 9.999515100003919]",15,C,2023-12-08_16h49.07.936,gca_avoidance_task,2022.2.4,143.72214485093292,
positions.xlsx,stimuli.xlsx,stimuli/Social1.png,stimuli/Social2.png,stimuli/Nonsocial2.png,stimuli/Nonsocial1.png,cs_plus_ns,,,,,,,0,0,0,0,,,,,,,,,,,,,,,,,0,1,1,1,,,,,,,,,,,,,,,,,,,,,,,,,,,,,,,,,,,,,,,,,,,,,,,,,,,,1825.1357994999998,,,,,,,,,,,,,,,,,,,,,1836.142292500008,1840.3157274999976,,,,,,,,,,,,,,,,,,,,,,1825.6495828000043,1825.6495828000043,0.013318500001332723,0.020373799998196773,12,"[0.014155700002447702, 0.41695090000575874, 1.139154000004055, 2.0697037000063574, 3.0695875999954296, 4.034849200004828, 5.222351300006267, 6.722196200003964, 6.95166039999458, 7.8054879999981495, 8.480013199994573, 9.277650399992126]","[0.2780263000022387, 0.9723109000042314, 1.9095835000043735, 2.937665699995705, 3.895900300005451, 5.0626309999934165, 6.138933900001575, 6.791668000005302, 7.430485399992904, 8.31245470000431, 9.11768409999786, 9.867960400006268]",15,C,2023-12-08_16h49.07.936,gca_avoidance_task,2022.2.4,143.72214485093292,
