posFile,stimFile,cs_plus_s,cs_minus_s,cs_plus_ns,cs_minus_ns,stimtype,position,trialtype,trials_threshold.thisRepN,trials_threshold.thisTrialN,trials_threshold.thisN,trials_threshold.thisIndex,blocks.thisRepN,blocks.thisTrialN,blocks.thisN,blocks.thisIndex,ratingtrials1.thisRepN,ratingtrials1.thisTrialN,ratingtrials1.thisN,ratingtrials1.thisIndex,learning_trials.thisRepN,learning_trials.thisTrialN,learning_trials.thisN,learning_trials.thisIndex,trials.thisRepN,trials.thisTrialN,trials.thisN,trials.thisIndex,ratingtrials2.thisRepN,ratingtrials2.thisTrialN,ratingtrials2.thisN,ratingtrials2.thisIndex,testtrials.thisRepN,testtrials.thisTrialN,testtrials.thisN,testtrials.thisIndex,ratingtrials3.thisRepN,ratingtrials3.thisTrialN,ratingtrials3.thisN,ratingtrials3.thisIndex,textStart.started,sliderPainT.response,sliderPainT.rt,textStartExp.started,imageRating.started,sliderStim.response,sliderStim.rt,textStartTask.started,image.started,score,outcome,roi.numLooks,roi.timesOn,roi.timesOff,imageFeedback.started,sliderPain.response,sliderPain.rt,textTestInstr.started,imageTest.started,roiTest.numLooks,roiTest.timesOn,roiTest.timesOff,participant,group,date,expName,psychopyVersion,frameRate,
,,,,,,,,,0,0,0,0,,,,,,,,,,,,,,,,,,,,,,,,,,,,,19.36238899989985,None,None,,,,,,,,,,,,,,,,,,,,45,C,2024-01-03_14h48.27.242,gca_avoidance_task,2022.2.4,143.99967738462246,
,,,,,,,,,1,0,1,0,,,,,,,,,,,,,,,,,,,,,,,,,,,,,,0.0,10.949252400081605,,,,,,,,,,,,,,,,,,,,45,C,2024-01-03_14h48.27.242,gca_avoidance_task,2022.2.4,143.99967738462246,
,,,,,,,,,2,0,2,0,,,,,,,,,,,,,,,,,,,,,,,,,,,,,,1.0,3.224966699955985,,,,,,,,,,,,,,,,,,,,45,C,2024-01-03_14h48.27.242,gca_avoidance_task,2022.2.4,143.99967738462246,
,,,,,,,,,3,0,3,0,,,,,,,,,,,,,,,,,,,,,,,,,,,,,,1.0,4.267931699985638,,,,,,,,,,,,,,,,,,,,45,C,2024-01-03_14h48.27.242,gca_avoidance_task,2022.2.4,143.99967738462246,
,,,,,,,,,4,0,4,0,,,,,,,,,,,,,,,,,,,,,,,,,,,,,,2.0,1.3003851999528706,,,,,,,,,,,,,,,,,,,,45,C,2024-01-03_14h48.27.242,gca_avoidance_task,2022.2.4,143.99967738462246,
,,,,,,,,,5,0,5,0,,,,,,,,,,,,,,,,,,,,,,,,,,,,,,2.0,1.707381899934262,,,,,,,,,,,,,,,,,,,,45,C,2024-01-03_14h48.27.242,gca_avoidance_task,2022.2.4,143.99967738462246,
,,,,,,,,,6,0,6,0,,,,,,,,,,,,,,,,,,,,,,,,,,,,,,3.0,1.2616615999722853,,,,,,,,,,,,,,,,,,,,45,C,2024-01-03_14h48.27.242,gca_avoidance_task,2022.2.4,143.99967738462246,
,,,,,,,,,7,0,7,0,,,,,,,,,,,,,,,,,,,,,,,,,,,,,,3.0,1.587543800007552,,,,,,,,,,,,,,,,,,,,45,C,2024-01-03_14h48.27.242,gca_avoidance_task,2022.2.4,143.99967738462246,
,,,,,,,,,8,0,8,0,,,,,,,,,,,,,,,,,,,,,,,,,,,,,,3.0,1.9049570999341086,,,,,,,,,,,,,,,,,,,,45,C,2024-01-03_14h48.27.242,gca_avoidance_task,2022.2.4,143.99967738462246,
,,,,,,,,,9,0,9,0,,,,,,,,,,,,,,,,,,,,,,,,,,,,,,3.0,4.338356300024316,,,,,,,,,,,,,,,,,,,,45,C,2024-01-03_14h48.27.242,gca_avoidance_task,2022.2.4,143.99967738462246,
,,,,,,,,,10,0,10,0,,,,,,,,,,,,,,,,,,,,,,,,,,,,,,4.0,4.158866800018586,,,,,,,,,,,,,,,,,,,,45,C,2024-01-03_14h48.27.242,gca_avoidance_task,2022.2.4,143.99967738462246,
,,,,,,,,,11,0,11,0,,,,,,,,,,,,,,,,,,,,,,,,,,,,,,4.0,1.4157269999850541,,,,,,,,,,,,,,,,,,,,45,C,2024-01-03_14h48.27.242,gca_avoidance_task,2022.2.4,143.99967738462246,
,,,,,,,,,12,0,12,0,,,,,,,,,,,,,,,,,,,,,,,,,,,,,,4.0,3.780416199937463,,,,,,,,,,,,,,,,,,,,45,C,2024-01-03_14h48.27.242,gca_avoidance_task,2022.2.4,143.99967738462246,
,,,,,,,,,13,0,13,0,,,,,,,,,,,,,,,,,,,,,,,,,,,,,,4.0,4.963766400003806,,,,,,,,,,,,,,,,,,,,45,C,2024-01-03_14h48.27.242,gca_avoidance_task,2022.2.4,143.99967738462246,
,,,,,,,,,14,0,14,0,,,,,,,,,,,,,,,,,,,,,,,,,,,,,,5.0,0.9509558000136167,,,,,,,,,,,,,,,,,,,,45,C,2024-01-03_14h48.27.242,gca_avoidance_task,2022.2.4,143.99967738462246,
,,,,,,,,,15,0,15,0,,,,,,,,,,,,,,,,,,,,,,,,,,,,,,5.0,4.687093799933791,,,,,,,,,,,,,,,,,,,,45,C,2024-01-03_14h48.27.242,gca_avoidance_task,2022.2.4,143.99967738462246,
,,,,,,,,,16,0,16,0,,,,,,,,,,,,,,,,,,,,,,,,,,,,,,6.0,2.1010681999614462,,,,,,,,,,,,,,,,,,,,45,C,2024-01-03_14h48.27.242,gca_avoidance_task,2022.2.4,143.99967738462246,
,,,,,,,,,17,0,17,0,,,,,,,,,,,,,,,,,,,,,,,,,,,,,,6.0,2.427473600022495,,,,,,,,,,,,,,,,,,,,45,C,2024-01-03_14h48.27.242,gca_avoidance_task,2022.2.4,143.99967738462246,
,,,,,,,,,18,0,18,0,,,,,,,,,,,,,,,,,,,,,,,,,,,,,,5.0,3.2835357000585645,,,,,,,,,,,,,,,,,,,,45,C,2024-01-03_14h48.27.242,gca_avoidance_task,2022.2.4,143.99967738462246,
,,,,,,,,,19,0,19,0,,,,,,,,,,,,,,,,,,,,,,,,,,,,,,5.0,3.0688379999483004,,,,,,,,,,,,,,,,,,,,45,C,2024-01-03_14h48.27.242,gca_avoidance_task,2022.2.4,143.99967738462246,
,,,,,,,,,20,0,20,0,,,,,,,,,,,,,,,,,,,,,,,,,,,,,,5.0,13.113765099900775,,,,,,,,,,,,,,,,,,,,45,C,2024-01-03_14h48.27.242,gca_avoidance_task,2022.2.4,143.99967738462246,
,,,,,,,,,21,0,21,0,,,,,,,,,,,,,,,,,,,,,,,,,,,,,,6.0,1.3327429998898879,,,,,,,,,,,,,,,,,,,,45,C,2024-01-03_14h48.27.242,gca_avoidance_task,2022.2.4,143.99967738462246,
,,,,,,,,,22,0,22,0,,,,,,,,,,,,,,,,,,,,,,,,,,,,,,6.0,3.0291057000868022,,,,,,,,,,,,,,,,,,,,45,C,2024-01-03_14h48.27.242,gca_avoidance_task,2022.2.4,143.99967738462246,
,,,,,,,,,23,0,23,0,,,,,,,,,,,,,,,,,,,,,,,,,,,,,,6.0,3.08385110006202,,,,,,,,,,,,,,,,,,,,45,C,2024-01-03_14h48.27.242,gca_avoidance_task,2022.2.4,143.99967738462246,
,,,,,,,,,24,0,24,0,,,,,,,,,,,,,,,,,,,,,,,,,,,,,,6.0,2.0356945999665186,,,,,,,,,,,,,,,,,,,,45,C,2024-01-03_14h48.27.242,gca_avoidance_task,2022.2.4,143.99967738462246,
,,,,,,,,,25,0,25,0,,,,,,,,,,,,,,,,,,,,,,,,,,,,,,6.0,2.3080497999908403,,,,,,,,,,,,,,,,,,,,45,C,2024-01-03_14h48.27.242,gca_avoidance_task,2022.2.4,143.99967738462246,
,,,,,,,,,26,0,26,0,,,,,,,,,,,,,,,,,,,,,,,,,,,,,,6.0,1.526768899988383,,,,,,,,,,,,,,,,,,,,45,C,2024-01-03_14h48.27.242,gca_avoidance_task,2022.2.4,143.99967738462246,
,,,,,,,,,27,0,27,0,,,,,,,,,,,,,,,,,,,,,,,,,,,,,,6.0,2.2024870000313967,,,,,,,,,,,,,,,,,,,,45,C,2024-01-03_14h48.27.242,gca_avoidance_task,2022.2.4,143.99967738462246,
,,,,,,,,,28,0,28,0,,,,,,,,,,,,,,,,,,,,,,,,,,,,,,6.0,2.6357877999544144,,,,,,,,,,,,,,,,,,,,45,C,2024-01-03_14h48.27.242,gca_avoidance_task,2022.2.4,143.99967738462246,
,,,,,,,,,29,0,29,0,,,,,,,,,,,,,,,,,,,,,,,,,,,,,,6.0,3.5084198999684304,,,,,,,,,,,,,,,,,,,,45,C,2024-01-03_14h48.27.242,gca_avoidance_task,2022.2.4,143.99967738462246,
,,,,,,,,,30,0,30,0,,,,,,,,,,,,,,,,,,,,,,,,,,,,,,7.0,3.084690000046976,,,,,,,,,,,,,,,,,,,,45,C,2024-01-03_14h48.27.242,gca_avoidance_task,2022.2.4,143.99967738462246,
,,,,,,,,,31,0,31,0,,,,,,,,,,,,,,,,,,,,,,,,,,,,,,6.0,1.4471633000066504,,,,,,,,,,,,,,,,,,,,45,C,2024-01-03_14h48.27.242,gca_avoidance_task,2022.2.4,143.99967738462246,
positions.xlsx,stimuli.xlsx,stimuli/Social1.png,stimuli/Social2.png,stimuli/Nonsocial2.png,stimuli/Nonsocial1.png,cs_plus_s,,,,,,,0,0,0,0,0,0,0,0,,,,,,,,,,,,,,,,,,,,,,,,504.7889985999791,567.7154901999747,6.0,5.906847900012508,,,,,,,,,,,,,,,,45,C,2024-01-03_14h48.27.242,gca_avoidance_task,2022.2.4,143.99967738462246,
positions.xlsx,stimuli.xlsx,stimuli/Social1.png,stimuli/Social2.png,stimuli/Nonsocial2.png,stimuli/Nonsocial1.png,cs_minus_s,,,,,,,0,0,0,0,0,1,1,2,,,,,,,,,,,,,,,,,,,,,,,,,575.4443575999467,5.0,4.275749800028279,,,,,,,,,,,,,,,,45,C,2024-01-03_14h48.27.242,gca_avoidance_task,2022.2.4,143.99967738462246,
positions.xlsx,stimuli.xlsx,stimuli/Social1.png,stimuli/Social2.png,stimuli/Nonsocial2.png,stimuli/Nonsocial1.png,cs_plus_ns,,,,,,,0,0,0,0,0,2,2,1,,,,,,,,,,,,,,,,,,,,,,,,,581.5829911999172,4.0,3.9688357999548316,,,,,,,,,,,,,,,,45,C,2024-01-03_14h48.27.242,gca_avoidance_task,2022.2.4,143.99967738462246,
positions.xlsx,stimuli.xlsx,stimuli/Social1.png,stimuli/Social2.png,stimuli/Nonsocial2.png,stimuli/Nonsocial1.png,cs_minus_ns,,,,,,,0,0,0,0,0,3,3,3,,,,,,,,,,,,,,,,,,,,,,,,,586.6383643998997,4.0,3.0550160999409854,,,,,,,,,,,,,,,,45,C,2024-01-03_14h48.27.242,gca_avoidance_task,2022.2.4,143.99967738462246,
positions.xlsx,stimuli.xlsx,stimuli/Social1.png,stimuli/Social2.png,stimuli/Nonsocial2.png,stimuli/Nonsocial1.png,,"(0.7, -0.5)",cs_plus_s,,,,,0,0,0,0,,,,,0,0,0,3,,,,,,,,,,,,,,,,,,,,,,,,590.4992853999138,611.8525978999678,0,shock,1,0.24316489999182522,0.24316860001999885,612.1095116999932,,,,,,,,45,C,2024-01-03_14h48.27.242,gca_avoidance_task,2022.2.4,143.99967738462246,
positions.xlsx,stimuli.xlsx,stimuli/Social1.png,stimuli/Social2.png,stimuli/Nonsocial2.png,stimuli/Nonsocial1.png,,"(-0.7, 0.5)",cs_minus_s,,,,,0,0,0,0,,,,,0,1,1,4,,,,,,,,,,,,,,,,,,,,,,,,,620.9911286999704,5,reward,1,0.18051650002598763,0.1805201000533998,621.1786219999194,,,,,,,,45,C,2024-01-03_14h48.27.242,gca_avoidance_task,2022.2.4,143.99967738462246,
positions.xlsx,stimuli.xlsx,stimuli/Social1.png,stimuli/Social2.png,stimuli/Nonsocial2.png,stimuli/Nonsocial1.png,,"(0.7, -0.5)",cs_plus_ns,,,,,0,0,0,0,,,,,0,2,2,11,,,,,,,,,,,,,,,,,,,,,,,,,631.2198850999121,5,shock,1,0.20871199993416667,0.2087158999638632,631.4351420999737,,,,,,,,45,C,2024-01-03_14h48.27.242,gca_avoidance_task,2022.2.4,143.99967738462246,
positions.xlsx,stimuli.xlsx,stimuli/Social1.png,stimuli/Social2.png,stimuli/Nonsocial2.png,stimuli/Nonsocial1.png,,"(0.7, 0.5)",cs_minus_s,,,,,0,0,0,0,,,,,0,3,3,6,,,,,,,,,,,,,,,,,,,,,,,,,640.844512199983,10,reward,1,0.20145289995707572,0.20145659998524934,641.0528676999966,,,,,,,,45,C,2024-01-03_14h48.27.242,gca_avoidance_task,2022.2.4,143.99967738462246,
positions.xlsx,stimuli.xlsx,stimuli/Social1.png,stimuli/Social2.png,stimuli/Nonsocial2.png,stimuli/Nonsocial1.png,,"(-0.7, -0.5)",cs_minus_ns,,,,,0,0,0,0,,,,,0,4,4,13,,,,,,,,,,,,,,,,,,,,,,,,,650.6913567999145,15,reward,1,0.4654221999226138,0.4654256999492645,651.1635903998977,,,,,,,,45,C,2024-01-03_14h48.27.242,gca_avoidance_task,2022.2.4,143.99967738462246,
positions.xlsx,stimuli.xlsx,stimuli/Social1.png,stimuli/Social2.png,stimuli/Nonsocial2.png,stimuli/Nonsocial1.png,,"(0.7, -0.5)",cs_minus_ns,,,,,0,0,0,0,,,,,0,5,5,15,,,,,,,,,,,,,,,,,,,,,,,,,661.0381249999627,20,reward,1,0.8961066000629216,0.8961103999754414,661.9409173999447,,,,,,,,45,C,2024-01-03_14h48.27.242,gca_avoidance_task,2022.2.4,143.99967738462246,
positions.xlsx,stimuli.xlsx,stimuli/Social1.png,stimuli/Social2.png,stimuli/Nonsocial2.png,stimuli/Nonsocial1.png,,"(-0.7, 0.5)",cs_plus_s,,,,,0,0,0,0,,,,,0,6,6,0,,,,,,,,,,,,,,,,,,,,,,,,,671.5307823999319,20,none,0,,,676.5444727999857,,,,,,,,45,C,2024-01-03_14h48.27.242,gca_avoidance_task,2022.2.4,143.99967738462246,
positions.xlsx,stimuli.xlsx,stimuli/Social1.png,stimuli/Social2.png,stimuli/Nonsocial2.png,stimuli/Nonsocial1.png,,"(-0.7, 0.5)",cs_minus_ns,,,,,0,0,0,0,,,,,0,7,7,12,,,,,,,,,,,,,,,,,,,,,,,,,685.4469149999786,25,reward,1,0.4446696999948472,0.4446734000230208,685.8982849000022,,,,,,,,45,C,2024-01-03_14h48.27.242,gca_avoidance_task,2022.2.4,143.99967738462246,
positions.xlsx,stimuli.xlsx,stimuli/Social1.png,stimuli/Social2.png,stimuli/Nonsocial2.png,stimuli/Nonsocial1.png,,"(-0.7, -0.5)",cs_minus_s,,,,,0,0,0,0,,,,,0,8,8,5,,,,,,,,,,,,,,,,,,,,,,,,,695.2659208999248,30,reward,1,0.6945249000564218,0.6945286999689415,695.9673376999563,,,,,,,,45,C,2024-01-03_14h48.27.242,gca_avoidance_task,2022.2.4,143.99967738462246,
positions.xlsx,stimuli.xlsx,stimuli/Social1.png,stimuli/Social2.png,stimuli/Nonsocial2.png,stimuli/Nonsocial1.png,,"(0.7, 0.5)",cs_plus_s,,,,,0,0,0,0,,,,,0,9,9,2,,,,,,,,,,,,,,,,,,,,,,,,,705.6613722000038,30,shock,1,0.15314429998397827,0.15314790001139045,705.8211125999223,,,,,,,,45,C,2024-01-03_14h48.27.242,gca_avoidance_task,2022.2.4,143.99967738462246,
positions.xlsx,stimuli.xlsx,stimuli/Social1.png,stimuli/Social2.png,stimuli/Nonsocial2.png,stimuli/Nonsocial1.png,,"(-0.7, 0.5)",cs_plus_ns,,,,,0,0,0,0,,,,,0,10,10,8,,,,,,,,,,,,,,,,,,,,,,,,,715.2929408999626,30,shock,1,0.2156150999944657,0.21561880002263933,715.5151645999867,,,,,,,,45,C,2024-01-03_14h48.27.242,gca_avoidance_task,2022.2.4,143.99967738462246,
positions.xlsx,stimuli.xlsx,stimuli/Social1.png,stimuli/Social2.png,stimuli/Nonsocial2.png,stimuli/Nonsocial1.png,,"(0.7, 0.5)",cs_minus_ns,,,,,0,0,0,0,,,,,0,11,11,14,,,,,,,,,,,,,,,,,,,,,,,,,724.1884349999018,35,reward,1,0.20917210006155074,0.20917539997026324,724.4037155999104,,,,,,,,45,C,2024-01-03_14h48.27.242,gca_avoidance_task,2022.2.4,143.99967738462246,
positions.xlsx,stimuli.xlsx,stimuli/Social1.png,stimuli/Social2.png,stimuli/Nonsocial2.png,stimuli/Nonsocial1.png,,"(-0.7, -0.5)",cs_plus_ns,,,,,0,0,0,0,,,,,0,12,12,9,,,,,,,,,,,,,,,,,,,,,,,,,733.6047050999478,35,shock,1,0.6041346000274643,0.6041384000563994,734.215807099943,,,,,,,,45,C,2024-01-03_14h48.27.242,gca_avoidance_task,2022.2.4,143.99967738462246,
positions.xlsx,stimuli.xlsx,stimuli/Social1.png,stimuli/Social2.png,stimuli/Nonsocial2.png,stimuli/Nonsocial1.png,,"(0.7, 0.5)",cs_plus_ns,,,,,0,0,0,0,,,,,0,13,13,10,,,,,,,,,,,,,,,,,,,,,,,,,743.6043271999806,35,none,0,,,748.6110602999106,,,,,,,,45,C,2024-01-03_14h48.27.242,gca_avoidance_task,2022.2.4,143.99967738462246,
positions.xlsx,stimuli.xlsx,stimuli/Social1.png,stimuli/Social2.png,stimuli/Nonsocial2.png,stimuli/Nonsocial1.png,,"(-0.7, -0.5)",cs_plus_s,,,,,0,0,0,0,,,,,0,14,14,1,,,,,,,,,,,,,,,,,,,,,,,,,758.8815022999188,35,none,0,,,763.8882390999934,,,,,,,,45,C,2024-01-03_14h48.27.242,gca_avoidance_task,2022.2.4,143.99967738462246,
positions.xlsx,stimuli.xlsx,stimuli/Social1.png,stimuli/Social2.png,stimuli/Nonsocial2.png,stimuli/Nonsocial1.png,,"(0.7, -0.5)",cs_minus_s,,,,,0,0,0,0,,,,,0,15,15,7,,,,,,,,,,,,,,,,,,,,,,,,,773.8045213998994,40,reward,1,0.6459964999230579,0.64600009995047,774.4572664999869,,,,,,,,45,C,2024-01-03_14h48.27.242,gca_avoidance_task,2022.2.4,143.99967738462246,
positions.xlsx,stimuli.xlsx,stimuli/Social1.png,stimuli/Social2.png,stimuli/Nonsocial2.png,stimuli/Nonsocial1.png,,"(-0.7, 0.5)",cs_plus_ns,,,,,0,0,0,0,,,,,1,0,16,8,,,,,,,,,,,,,,,,,,,,,,,,,784.0818757999223,40,shock,1,0.2298517000162974,0.2298694000346586,784.3179773999145,,,,,,,,45,C,2024-01-03_14h48.27.242,gca_avoidance_task,2022.2.4,143.99967738462246,
positions.xlsx,stimuli.xlsx,stimuli/Social1.png,stimuli/Social2.png,stimuli/Nonsocial2.png,stimuli/Nonsocial1.png,,"(-0.7, 0.5)",cs_plus_s,,,,,0,0,0,0,,,,,1,1,17,0,,,,,,,,,,,,,,,,,,,,,,,,,793.824554999941,40,none,0,,,798.8313215998933,,,,,,,,45,C,2024-01-03_14h48.27.242,gca_avoidance_task,2022.2.4,143.99967738462246,
positions.xlsx,stimuli.xlsx,stimuli/Social1.png,stimuli/Social2.png,stimuli/Nonsocial2.png,stimuli/Nonsocial1.png,,"(0.7, 0.5)",cs_minus_ns,,,,,0,0,0,0,,,,,1,2,18,14,,,,,,,,,,,,,,,,,,,,,,,,,808.4281527999556,45,reward,1,0.5277854000451043,0.5277893000748008,808.9628667999059,,,,,,,,45,C,2024-01-03_14h48.27.242,gca_avoidance_task,2022.2.4,143.99967738462246,
positions.xlsx,stimuli.xlsx,stimuli/Social1.png,stimuli/Social2.png,stimuli/Nonsocial2.png,stimuli/Nonsocial1.png,,"(0.7, 0.5)",cs_minus_s,,,,,0,0,0,0,,,,,1,3,19,6,,,,,,,,,,,,,,,,,,,,,,,,,818.80277509999,50,reward,1,0.8125047999201342,0.8125086999498308,819.6221615999239,,,,,,,,45,C,2024-01-03_14h48.27.242,gca_avoidance_task,2022.2.4,143.99967738462246,
positions.xlsx,stimuli.xlsx,stimuli/Social1.png,stimuli/Social2.png,stimuli/Nonsocial2.png,stimuli/Nonsocial1.png,,"(0.7, 0.5)",cs_plus_ns,,,,,0,0,0,0,,,,,1,4,20,10,,,,,,,,,,,,,,,,,,,,,,,,,828.9620360999834,50,shock,1,0.1876601999392733,0.18766419996973127,829.156491199974,,,,,,,,45,C,2024-01-03_14h48.27.242,gca_avoidance_task,2022.2.4,143.99967738462246,
positions.xlsx,stimuli.xlsx,stimuli/Social1.png,stimuli/Social2.png,stimuli/Nonsocial2.png,stimuli/Nonsocial1.png,,"(0.7, -0.5)",cs_plus_ns,,,,,0,0,0,0,,,,,1,5,21,11,,,,,,,,,,,,,,,,,,,,,,,,,839.0033297999762,50,none,0,,,844.010059399996,,,,,,,,45,C,2024-01-03_14h48.27.242,gca_avoidance_task,2022.2.4,143.99967738462246,
positions.xlsx,stimuli.xlsx,stimuli/Social1.png,stimuli/Social2.png,stimuli/Nonsocial2.png,stimuli/Nonsocial1.png,,"(0.7, -0.5)",cs_minus_s,,,,,0,0,0,0,,,,,1,6,22,7,,,,,,,,,,,,,,,,,,,,,,,,,852.7666699999245,55,reward,1,0.6114392000017688,0.6114428000291809,853.3847086000023,,,,,,,,45,C,2024-01-03_14h48.27.242,gca_avoidance_task,2022.2.4,143.99967738462246,
positions.xlsx,stimuli.xlsx,stimuli/Social1.png,stimuli/Social2.png,stimuli/Nonsocial2.png,stimuli/Nonsocial1.png,,"(-0.7, -0.5)",cs_minus_ns,,,,,0,0,0,0,,,,,1,7,23,13,,,,,,,,,,,,,,,,,,,,,,,,,862.3010330999969,60,reward,1,0.22949509997852147,0.2294986000051722,862.5371446999488,,,,,,,,45,C,2024-01-03_14h48.27.242,gca_avoidance_task,2022.2.4,143.99967738462246,
positions.xlsx,stimuli.xlsx,stimuli/Social1.png,stimuli/Social2.png,stimuli/Nonsocial2.png,stimuli/Nonsocial1.png,,"(0.7, 0.5)",cs_plus_s,,,,,0,0,0,0,,,,,1,8,24,2,,,,,,,,,,,,,,,,,,,,,,,,,872.1408732999116,60,none,0,,,877.1476753999013,,,,,,,,45,C,2024-01-03_14h48.27.242,gca_avoidance_task,2022.2.4,143.99967738462246,
positions.xlsx,stimuli.xlsx,stimuli/Social1.png,stimuli/Social2.png,stimuli/Nonsocial2.png,stimuli/Nonsocial1.png,,"(0.7, -0.5)",cs_minus_ns,,,,,0,0,0,0,,,,,1,9,25,15,,,,,,,,,,,,,,,,,,,,,,,,,886.9597694999538,65,reward,1,0.6598847999703139,0.6598890000022948,887.6263627998997,,,,,,,,45,C,2024-01-03_14h48.27.242,gca_avoidance_task,2022.2.4,143.99967738462246,
positions.xlsx,stimuli.xlsx,stimuli/Social1.png,stimuli/Social2.png,stimuli/Nonsocial2.png,stimuli/Nonsocial1.png,,"(-0.7, -0.5)",cs_plus_ns,,,,,0,0,0,0,,,,,1,10,26,9,,,,,,,,,,,,,,,,,,,,,,,,,897.6051713000052,65,shock,1,0.21537920006085187,0.2153827000875026,897.8274095999077,,,,,,,,45,C,2024-01-03_14h48.27.242,gca_avoidance_task,2022.2.4,143.99967738462246,
positions.xlsx,stimuli.xlsx,stimuli/Social1.png,stimuli/Social2.png,stimuli/Nonsocial2.png,stimuli/Nonsocial1.png,,"(-0.7, -0.5)",cs_plus_s,,,,,0,0,0,0,,,,,1,11,27,1,,,,,,,,,,,,,,,,,,,,,,,,,907.4033893999876,65,shock,1,0.40319409989751875,0.4031979999272153,907.8131009999197,,,,,,,,45,C,2024-01-03_14h48.27.242,gca_avoidance_task,2022.2.4,143.99967738462246,
positions.xlsx,stimuli.xlsx,stimuli/Social1.png,stimuli/Social2.png,stimuli/Nonsocial2.png,stimuli/Nonsocial1.png,,"(-0.7, -0.5)",cs_minus_s,,,,,0,0,0,0,,,,,1,12,28,5,,,,,,,,,,,,,,,,,,,,,,,,,916.9654942000052,70,reward,1,0.6666013000067323,0.6666050999192521,917.6390984999016,,,,,,,,45,C,2024-01-03_14h48.27.242,gca_avoidance_task,2022.2.4,143.99967738462246,
positions.xlsx,stimuli.xlsx,stimuli/Social1.png,stimuli/Social2.png,stimuli/Nonsocial2.png,stimuli/Nonsocial1.png,,"(-0.7, 0.5)",cs_minus_ns,,,,,0,0,0,0,,,,,1,13,29,12,,,,,,,,,,,,,,,,,,,,,,,,,926.9720936999656,75,reward,1,0.5764024999225512,0.5764060999499634,927.5553999999538,,,,,,,,45,C,2024-01-03_14h48.27.242,gca_avoidance_task,2022.2.4,143.99967738462246,
positions.xlsx,stimuli.xlsx,stimuli/Social1.png,stimuli/Social2.png,stimuli/Nonsocial2.png,stimuli/Nonsocial1.png,,"(-0.7, 0.5)",cs_minus_s,,,,,0,0,0,0,,,,,1,14,30,4,,,,,,,,,,,,,,,,,,,,,,,,,936.450885899947,80,reward,1,0.6598910000175238,0.6598945999285206,937.1175197999692,,,,,,,,45,C,2024-01-03_14h48.27.242,gca_avoidance_task,2022.2.4,143.99967738462246,
positions.xlsx,stimuli.xlsx,stimuli/Social1.png,stimuli/Social2.png,stimuli/Nonsocial2.png,stimuli/Nonsocial1.png,,"(0.7, -0.5)",cs_plus_s,,,,,0,0,0,0,,,,,1,15,31,3,,,,,,,,,,,,,,,,,,,,,,,,,946.9712811999489,80,none,0,,,951.9780936999014,,,,,,,,45,C,2024-01-03_14h48.27.242,gca_avoidance_task,2022.2.4,143.99967738462246,
positions.xlsx,stimuli.xlsx,stimuli/Social1.png,stimuli/Social2.png,stimuli/Nonsocial2.png,stimuli/Nonsocial1.png,,"(-0.7, 0.5)",cs_minus_ns,,,,,0,0,0,0,,,,,,,,,0,0,0,12,,,,,,,,,,,,,,,,,,,,,973.5882952999091,85,reward,1,0.2710392000153661,0.27104280004277825,973.866062099929,,,,,,,,45,C,2024-01-03_14h48.27.242,gca_avoidance_task,2022.2.4,143.99967738462246,
positions.xlsx,stimuli.xlsx,stimuli/Social1.png,stimuli/Social2.png,stimuli/Nonsocial2.png,stimuli/Nonsocial1.png,,"(-0.7, -0.5)",cs_minus_s,,,,,0,0,0,0,,,,,,,,,0,1,1,5,,,,,,,,,,,,,,,,,,,,,982.650459599914,90,reward,1,0.5136554000200704,0.5136589000467211,983.1712692999281,,,,,,,,45,C,2024-01-03_14h48.27.242,gca_avoidance_task,2022.2.4,143.99967738462246,
positions.xlsx,stimuli.xlsx,stimuli/Social1.png,stimuli/Social2.png,stimuli/Nonsocial2.png,stimuli/Nonsocial1.png,,"(-0.7, 0.5)",cs_plus_ns,,,,,0,0,0,0,,,,,,,,,0,2,2,8,,,,,,,,,,,,,,,,,,,,,992.5180973999668,90,none,0,,,997.5248563999776,,,,,,,,45,C,2024-01-03_14h48.27.242,gca_avoidance_task,2022.2.4,143.99967738462246,
positions.xlsx,stimuli.xlsx,stimuli/Social1.png,stimuli/Social2.png,stimuli/Nonsocial2.png,stimuli/Nonsocial1.png,,"(0.7, 0.5)",cs_plus_s,,,,,0,0,0,0,,,,,,,,,0,3,3,2,,,,,,,,,,,,,,,,,,,,,1007.4550198999932,90,shock,1,0.2569172999355942,0.2569206999614835,1007.7189068999141,,,,,,,,45,C,2024-01-03_14h48.27.242,gca_avoidance_task,2022.2.4,143.99967738462246,
positions.xlsx,stimuli.xlsx,stimuli/Social1.png,stimuli/Social2.png,stimuli/Nonsocial2.png,stimuli/Nonsocial1.png,,"(-0.7, -0.5)",cs_minus_ns,,,,,0,0,0,0,,,,,,,,,0,4,4,13,,,,,,,,,,,,,,,,,,,,,1017.336595700006,95,reward,1,0.6946955999592319,0.6946994999889284,1018.0379693999421,,,,,,,,45,C,2024-01-03_14h48.27.242,gca_avoidance_task,2022.2.4,143.99967738462246,
positions.xlsx,stimuli.xlsx,stimuli/Social1.png,stimuli/Social2.png,stimuli/Nonsocial2.png,stimuli/Nonsocial1.png,,"(0.7, -0.5)",cs_minus_s,,,,,0,0,0,0,,,,,,,,,0,5,5,7,,,,,,,,,,,,,,,,,,,,,1027.5375485999975,100,reward,1,0.6601184000028297,0.6601222000317648,1028.2042620999273,,,,,,,,45,C,2024-01-03_14h48.27.242,gca_avoidance_task,2022.2.4,143.99967738462246,
positions.xlsx,stimuli.xlsx,stimuli/Social1.png,stimuli/Social2.png,stimuli/Nonsocial2.png,stimuli/Nonsocial1.png,,"(-0.7, 0.5)",cs_minus_s,,,,,0,0,0,0,,,,,,,,,0,6,6,4,,,,,,,,,,,,,,,,,,,,,1037.7871592999436,105,reward,1,0.6603643000125885,0.6603683999273926,1038.4538127999986,,,,,,,,45,C,2024-01-03_14h48.27.242,gca_avoidance_task,2022.2.4,143.99967738462246,
positions.xlsx,stimuli.xlsx,stimuli/Social1.png,stimuli/Social2.png,stimuli/Nonsocial2.png,stimuli/Nonsocial1.png,,"(0.7, 0.5)",cs_minus_s,,,,,0,0,0,0,,,,,,,,,0,7,7,6,,,,,,,,,,,,,,,,,,,,,1048.3006429999368,110,reward,1,0.6461246999679133,0.6461282999953255,1048.9534201999195,,,,,,,,45,C,2024-01-03_14h48.27.242,gca_avoidance_task,2022.2.4,143.99967738462246,
positions.xlsx,stimuli.xlsx,stimuli/Social1.png,stimuli/Social2.png,stimuli/Nonsocial2.png,stimuli/Nonsocial1.png,,"(0.7, 0.5)",cs_minus_ns,,,,,0,0,0,0,,,,,,,,,0,8,8,14,,,,,,,,,,,,,,,,,,,,,1057.9738919999218,115,reward,1,0.8058650000020862,0.8058688000310212,1058.7863455999177,,,,,,,,45,C,2024-01-03_14h48.27.242,gca_avoidance_task,2022.2.4,143.99967738462246,
positions.xlsx,stimuli.xlsx,stimuli/Social1.png,stimuli/Social2.png,stimuli/Nonsocial2.png,stimuli/Nonsocial1.png,,"(-0.7, -0.5)",cs_plus_ns,,,,,0,0,0,0,,,,,,,,,0,9,9,9,,,,,,,,,,,,,,,,,,,,,1068.0359862999758,115,shock,1,0.2362130000256002,0.23621690005529672,1068.2790486000013,,,,,,,,45,C,2024-01-03_14h48.27.242,gca_avoidance_task,2022.2.4,143.99967738462246,
positions.xlsx,stimuli.xlsx,stimuli/Social1.png,stimuli/Social2.png,stimuli/Nonsocial2.png,stimuli/Nonsocial1.png,,"(0.7, -0.5)",cs_minus_ns,,,,,0,0,0,0,,,,,,,,,0,10,10,15,,,,,,,,,,,,,,,,,,,,,1077.4869962999364,120,reward,1,0.6255720000481233,0.6255756000755355,1078.1189256999642,,,,,,,,45,C,2024-01-03_14h48.27.242,gca_avoidance_task,2022.2.4,143.99967738462246,
positions.xlsx,stimuli.xlsx,stimuli/Social1.png,stimuli/Social2.png,stimuli/Nonsocial2.png,stimuli/Nonsocial1.png,,"(0.7, -0.5)",cs_plus_s,,,,,0,0,0,0,,,,,,,,,0,11,11,3,,,,,,,,,,,,,,,,,,,,,1087.5838298999006,120,none,0,,,1092.597529099905,,,,,,,,45,C,2024-01-03_14h48.27.242,gca_avoidance_task,2022.2.4,143.99967738462246,
positions.xlsx,stimuli.xlsx,stimuli/Social1.png,stimuli/Social2.png,stimuli/Nonsocial2.png,stimuli/Nonsocial1.png,,"(0.7, 0.5)",cs_plus_ns,,,,,0,0,0,0,,,,,,,,,0,12,12,10,,,,,,,,,,,,,,,,,,,,,1102.4443573999451,120,shock,1,0.5697821999201551,0.5764729999937117,1103.0276844999753,,,,,,,,45,C,2024-01-03_14h48.27.242,gca_avoidance_task,2022.2.4,143.99967738462246,
positions.xlsx,stimuli.xlsx,stimuli/Social1.png,stimuli/Social2.png,stimuli/Nonsocial2.png,stimuli/Nonsocial1.png,,"(0.7, -0.5)",cs_plus_ns,,,,,0,0,0,0,,,,,,,,,0,13,13,11,,,,,,,,,,,,,,,,,,,,,1113.0273025999777,120,none,0,,,1118.0340574999573,,,,,,,,45,C,2024-01-03_14h48.27.242,gca_avoidance_task,2022.2.4,143.99967738462246,
positions.xlsx,stimuli.xlsx,stimuli/Social1.png,stimuli/Social2.png,stimuli/Nonsocial2.png,stimuli/Nonsocial1.png,,"(-0.7, -0.5)",cs_plus_s,,,,,0,0,0,0,,,,,,,,,0,14,14,1,,,,,,,,,,,,,,,,,,,,,1127.1239414999727,120,shock,1,0.27075839997269213,0.27076210000086576,1127.4016775999917,,,,,,,,45,C,2024-01-03_14h48.27.242,gca_avoidance_task,2022.2.4,143.99967738462246,
positions.xlsx,stimuli.xlsx,stimuli/Social1.png,stimuli/Social2.png,stimuli/Nonsocial2.png,stimuli/Nonsocial1.png,,"(-0.7, 0.5)",cs_plus_s,,,,,0,0,0,0,,,,,,,,,0,15,15,0,,,,,,,,,,,,,,,,,,,,,1136.1027630999452,120,none,0,,,1141.1095333999256,,,,,,,,45,C,2024-01-03_14h48.27.242,gca_avoidance_task,2022.2.4,143.99967738462246,
positions.xlsx,stimuli.xlsx,stimuli/Social1.png,stimuli/Social2.png,stimuli/Nonsocial2.png,stimuli/Nonsocial1.png,,"(-0.7, 0.5)",cs_minus_ns,,,,,0,0,0,0,,,,,,,,,1,0,16,12,,,,,,,,,,,,,,,,,,,,,1150.9563475999748,125,reward,1,0.5137141000013798,0.5137177999131382,1151.4771705999738,,,,,,,,45,C,2024-01-03_14h48.27.242,gca_avoidance_task,2022.2.4,143.99967738462246,
positions.xlsx,stimuli.xlsx,stimuli/Social1.png,stimuli/Social2.png,stimuli/Nonsocial2.png,stimuli/Nonsocial1.png,,"(-0.7, 0.5)",cs_plus_s,,,,,0,0,0,0,,,,,,,,,1,1,17,0,,,,,,,,,,,,,,,,,,,,,1161.1573397999164,125,none,0,,,1166.1710444999626,,,,,,,,45,C,2024-01-03_14h48.27.242,gca_avoidance_task,2022.2.4,143.99967738462246,
positions.xlsx,stimuli.xlsx,stimuli/Social1.png,stimuli/Social2.png,stimuli/Nonsocial2.png,stimuli/Nonsocial1.png,,"(0.7, -0.5)",cs_minus_s,,,,,0,0,0,0,,,,,,,,,1,2,18,7,,,,,,,,,,,,,,,,,,,,,1175.4137535999762,130,reward,1,0.6602186999516562,0.6602222999790683,1176.0803694999777,,,,,,,,45,C,2024-01-03_14h48.27.242,gca_avoidance_task,2022.2.4,143.99967738462246,
positions.xlsx,stimuli.xlsx,stimuli/Social1.png,stimuli/Social2.png,stimuli/Nonsocial2.png,stimuli/Nonsocial1.png,,"(0.7, -0.5)",cs_plus_s,,,,,0,0,0,0,,,,,,,,,1,3,19,3,,,,,,,,,,,,,,,,,,,,,1185.864753199974,130,none,0,,,1190.878378399997,,,,,,,,45,C,2024-01-03_14h48.27.242,gca_avoidance_task,2022.2.4,143.99967738462246,
positions.xlsx,stimuli.xlsx,stimuli/Social1.png,stimuli/Social2.png,stimuli/Nonsocial2.png,stimuli/Nonsocial1.png,,"(0.7, 0.5)",cs_plus_ns,,,,,0,0,0,0,,,,,,,,,1,4,20,10,,,,,,,,,,,,,,,,,,,,,1200.211397200008,130,none,0,,,1205.2181620999472,,,,,,,,45,C,2024-01-03_14h48.27.242,gca_avoidance_task,2022.2.4,143.99967738462246,
positions.xlsx,stimuli.xlsx,stimuli/Social1.png,stimuli/Social2.png,stimuli/Nonsocial2.png,stimuli/Nonsocial1.png,,"(-0.7, -0.5)",cs_minus_s,,,,,0,0,0,0,,,,,,,,,1,5,21,5,,,,,,,,,,,,,,,,,,,,,1214.4886267998954,135,reward,1,0.20161940006073564,0.20162300008814782,1214.6969388999278,,,,,,,,45,C,2024-01-03_14h48.27.242,gca_avoidance_task,2022.2.4,143.99967738462246,
positions.xlsx,stimuli.xlsx,stimuli/Social1.png,stimuli/Social2.png,stimuli/Nonsocial2.png,stimuli/Nonsocial1.png,,"(-0.7, -0.5)",cs_plus_s,,,,,0,0,0,0,,,,,,,,,1,6,22,1,,,,,,,,,,,,,,,,,,,,,1224.0437977999682,135,none,0,,,1229.0505958999274,,,,,,,,45,C,2024-01-03_14h48.27.242,gca_avoidance_task,2022.2.4,143.99967738462246,
positions.xlsx,stimuli.xlsx,stimuli/Social1.png,stimuli/Social2.png,stimuli/Nonsocial2.png,stimuli/Nonsocial1.png,,"(0.7, 0.5)",cs_plus_s,,,,,0,0,0,0,,,,,,,,,1,7,23,2,,,,,,,,,,,,,,,,,,,,,1238.3209749999223,135,none,0,,,1243.3277453999035,,,,,,,,45,C,2024-01-03_14h48.27.242,gca_avoidance_task,2022.2.4,143.99967738462246,
positions.xlsx,stimuli.xlsx,stimuli/Social1.png,stimuli/Social2.png,stimuli/Nonsocial2.png,stimuli/Nonsocial1.png,,"(0.7, 0.5)",cs_minus_s,,,,,0,0,0,0,,,,,,,,,1,8,24,6,,,,,,,,,,,,,,,,,,,,,1253.0773544999538,140,reward,1,0.5905070999870077,0.590510799898766,1253.6746234999737,,,,,,,,45,C,2024-01-03_14h48.27.242,gca_avoidance_task,2022.2.4,143.99967738462246,
positions.xlsx,stimuli.xlsx,stimuli/Social1.png,stimuli/Social2.png,stimuli/Nonsocial2.png,stimuli/Nonsocial1.png,,"(0.7, -0.5)",cs_minus_ns,,,,,0,0,0,0,,,,,,,,,1,9,25,15,,,,,,,,,,,,,,,,,,,,,1262.4103240999393,145,reward,1,0.5210803999798372,0.5210842000087723,1262.938138299971,,,,,,,,45,C,2024-01-03_14h48.27.242,gca_avoidance_task,2022.2.4,143.99967738462246,
positions.xlsx,stimuli.xlsx,stimuli/Social1.png,stimuli/Social2.png,stimuli/Nonsocial2.png,stimuli/Nonsocial1.png,,"(0.7, -0.5)",cs_plus_ns,,,,,0,0,0,0,,,,,,,,,1,10,26,11,,,,,,,,,,,,,,,,,,,,,1272.2293920998927,145,none,0,,,1277.2430891999975,,,,,,,,45,C,2024-01-03_14h48.27.242,gca_avoidance_task,2022.2.4,143.99967738462246,
positions.xlsx,stimuli.xlsx,stimuli/Social1.png,stimuli/Social2.png,stimuli/Nonsocial2.png,stimuli/Nonsocial1.png,,"(-0.7, -0.5)",cs_minus_ns,,,,,0,0,0,0,,,,,,,,,1,11,27,13,,,,,,,,,,,,,,,,,,,,,1287.020499199978,150,reward,1,0.45833569997921586,0.4583394000073895,1287.485743499943,,,,,,,,45,C,2024-01-03_14h48.27.242,gca_avoidance_task,2022.2.4,143.99967738462246,
positions.xlsx,stimuli.xlsx,stimuli/Social1.png,stimuli/Social2.png,stimuli/Nonsocial2.png,stimuli/Nonsocial1.png,,"(0.7, 0.5)",cs_minus_ns,,,,,0,0,0,0,,,,,,,,,1,12,28,14,,,,,,,,,,,,,,,,,,,,,1296.4368027999299,155,reward,1,0.430969100096263,0.43097270000725985,1296.874272099929,,,,,,,,45,C,2024-01-03_14h48.27.242,gca_avoidance_task,2022.2.4,143.99967738462246,
positions.xlsx,stimuli.xlsx,stimuli/Social1.png,stimuli/Social2.png,stimuli/Nonsocial2.png,stimuli/Nonsocial1.png,,"(-0.7, 0.5)",cs_minus_s,,,,,0,0,0,0,,,,,,,,,1,13,29,4,,,,,,,,,,,,,,,,,,,,,1306.6655714999652,160,reward,1,0.9515133999520913,0.9584496000315994,1307.630825500004,,,,,,,,45,C,2024-01-03_14h48.27.242,gca_avoidance_task,2022.2.4,143.99967738462246,
positions.xlsx,stimuli.xlsx,stimuli/Social1.png,stimuli/Social2.png,stimuli/Nonsocial2.png,stimuli/Nonsocial1.png,,"(-0.7, 0.5)",cs_plus_ns,,,,,0,0,0,0,,,,,,,,,1,14,30,8,,,,,,,,,,,,,,,,,,,,,1317.3387453999603,160,none,0,,,1322.3524561999366,,,,,,,,45,C,2024-01-03_14h48.27.242,gca_avoidance_task,2022.2.4,143.99967738462246,
positions.xlsx,stimuli.xlsx,stimuli/Social1.png,stimuli/Social2.png,stimuli/Nonsocial2.png,stimuli/Nonsocial1.png,,"(-0.7, -0.5)",cs_plus_ns,,,,,0,0,0,0,,,,,,,,,1,15,31,9,,,,,,,,,,,,,,,,,,,,,1332.1367893998977,160,none,0,,,1337.1435167999007,,,,,,,,45,C,2024-01-03_14h48.27.242,gca_avoidance_task,2022.2.4,143.99967738462246,
positions.xlsx,stimuli.xlsx,stimuli/Social1.png,stimuli/Social2.png,stimuli/Nonsocial2.png,stimuli/Nonsocial1.png,,"(0.7, -0.5)",cs_plus_ns,,,,,0,0,0,0,,,,,,,,,2,0,32,11,,,,,,,,,,,,,,,,,,,,,1347.400076599908,160,none,0,,,1352.4137450999115,,,,,,,,45,C,2024-01-03_14h48.27.242,gca_avoidance_task,2022.2.4,143.99967738462246,
positions.xlsx,stimuli.xlsx,stimuli/Social1.png,stimuli/Social2.png,stimuli/Nonsocial2.png,stimuli/Nonsocial1.png,,"(0.7, -0.5)",cs_minus_ns,,,,,0,0,0,0,,,,,,,,,2,1,33,15,,,,,,,,,,,,,,,,,,,,,1362.0314347998938,165,reward,1,0.7568799000000581,0.756883499911055,1362.7953091999516,,,,,,,,45,C,2024-01-03_14h48.27.242,gca_avoidance_task,2022.2.4,143.99967738462246,
positions.xlsx,stimuli.xlsx,stimuli/Social1.png,stimuli/Social2.png,stimuli/Nonsocial2.png,stimuli/Nonsocial1.png,,"(0.7, 0.5)",cs_plus_ns,,,,,0,0,0,0,,,,,,,,,2,2,34,10,,,,,,,,,,,,,,,,,,,,,1372.2949201999,165,none,0,,,1377.3016688999487,,,,,,,,45,C,2024-01-03_14h48.27.242,gca_avoidance_task,2022.2.4,143.99967738462246,
positions.xlsx,stimuli.xlsx,stimuli/Social1.png,stimuli/Social2.png,stimuli/Nonsocial2.png,stimuli/Nonsocial1.png,,"(-0.7, 0.5)",cs_minus_s,,,,,0,0,0,0,,,,,,,,,2,3,35,4,,,,,,,,,,,,,,,,,,,,,1386.752744199941,170,reward,1,0.7086658000480384,0.7086693000746891,1387.4679399000015,,,,,,,,45,C,2024-01-03_14h48.27.242,gca_avoidance_task,2022.2.4,143.99967738462246,
positions.xlsx,stimuli.xlsx,stimuli/Social1.png,stimuli/Social2.png,stimuli/Nonsocial2.png,stimuli/Nonsocial1.png,,"(-0.7, 0.5)",cs_plus_ns,,,,,0,0,0,0,,,,,,,,,2,4,36,8,,,,,,,,,,,,,,,,,,,,,1397.6064389999956,170,shock,1,0.22216960007790476,0.2221733001060784,1397.8356332998956,,,,,,,,45,C,2024-01-03_14h48.27.242,gca_avoidance_task,2022.2.4,143.99967738462246,
positions.xlsx,stimuli.xlsx,stimuli/Social1.png,stimuli/Social2.png,stimuli/Nonsocial2.png,stimuli/Nonsocial1.png,,"(-0.7, -0.5)",cs_plus_s,,,,,0,0,0,0,,,,,,,,,2,5,37,1,,,,,,,,,,,,,,,,,,,,,1408.1407183998963,170,shock,1,0.24315950006712228,0.243163000093773,1408.3907435999718,,,,,,,,45,C,2024-01-03_14h48.27.242,gca_avoidance_task,2022.2.4,143.99967738462246,
positions.xlsx,stimuli.xlsx,stimuli/Social1.png,stimuli/Social2.png,stimuli/Nonsocial2.png,stimuli/Nonsocial1.png,,"(0.7, 0.5)",cs_minus_ns,,,,,0,0,0,0,,,,,,,,,2,6,38,14,,,,,,,,,,,,,,,,,,,,,1418.2167519999202,175,reward,1,0.5557990000816062,0.5558026999933645,1418.7792427999666,,,,,,,,45,C,2024-01-03_14h48.27.242,gca_avoidance_task,2022.2.4,143.99967738462246,
positions.xlsx,stimuli.xlsx,stimuli/Social1.png,stimuli/Social2.png,stimuli/Nonsocial2.png,stimuli/Nonsocial1.png,,"(-0.7, -0.5)",cs_plus_ns,,,,,0,0,0,0,,,,,,,,,2,7,39,9,,,,,,,,,,,,,,,,,,,,,1428.7441526999464,175,none,0,,,1433.75780199992,,,,,,,,45,C,2024-01-03_14h48.27.242,gca_avoidance_task,2022.2.4,143.99967738462246,
positions.xlsx,stimuli.xlsx,stimuli/Social1.png,stimuli/Social2.png,stimuli/Nonsocial2.png,stimuli/Nonsocial1.png,,"(-0.7, -0.5)",cs_minus_ns,,,,,0,0,0,0,,,,,,,,,2,8,40,13,,,,,,,,,,,,,,,,,,,,,1442.7991202999838,180,reward,1,0.625339400023222,0.6253430999349803,1443.4310426999582,,,,,,,,45,C,2024-01-03_14h48.27.242,gca_avoidance_task,2022.2.4,143.99967738462246,
positions.xlsx,stimuli.xlsx,stimuli/Social1.png,stimuli/Social2.png,stimuli/Nonsocial2.png,stimuli/Nonsocial1.png,,"(0.7, 0.5)",cs_minus_s,,,,,0,0,0,0,,,,,,,,,2,9,41,6,,,,,,,,,,,,,,,,,,,,,1453.1806640999857,185,reward,1,0.604026599903591,0.6110561999958009,1453.798703199951,,,,,,,,45,C,2024-01-03_14h48.27.242,gca_avoidance_task,2022.2.4,143.99967738462246,
positions.xlsx,stimuli.xlsx,stimuli/Social1.png,stimuli/Social2.png,stimuli/Nonsocial2.png,stimuli/Nonsocial1.png,,"(-0.7, 0.5)",cs_plus_s,,,,,0,0,0,0,,,,,,,,,2,10,42,0,,,,,,,,,,,,,,,,,,,,,1463.6386013999581,185,none,0,,,1468.64533999993,,,,,,,,45,C,2024-01-03_14h48.27.242,gca_avoidance_task,2022.2.4,143.99967738462246,
positions.xlsx,stimuli.xlsx,stimuli/Social1.png,stimuli/Social2.png,stimuli/Nonsocial2.png,stimuli/Nonsocial1.png,,"(0.7, 0.5)",cs_plus_s,,,,,0,0,0,0,,,,,,,,,2,11,43,2,,,,,,,,,,,,,,,,,,,,,1478.297765999916,185,none,0,,,1483.3044873999897,,,,,,,,45,C,2024-01-03_14h48.27.242,gca_avoidance_task,2022.2.4,143.99967738462246,
positions.xlsx,stimuli.xlsx,stimuli/Social1.png,stimuli/Social2.png,stimuli/Nonsocial2.png,stimuli/Nonsocial1.png,,"(0.7, -0.5)",cs_plus_s,,,,,0,0,0,0,,,,,,,,,2,12,44,3,,,,,,,,,,,,,,,,,,,,,1492.33887159999,185,none,0,,,1497.3456193999154,,,,,,,,45,C,2024-01-03_14h48.27.242,gca_avoidance_task,2022.2.4,143.99967738462246,
positions.xlsx,stimuli.xlsx,stimuli/Social1.png,stimuli/Social2.png,stimuli/Nonsocial2.png,stimuli/Nonsocial1.png,,"(-0.7, -0.5)",cs_minus_s,,,,,0,0,0,0,,,,,,,,,2,13,45,5,,,,,,,,,,,,,,,,,,,,,1507.067469600006,190,reward,1,0.9102837999816984,0.9102876000106335,1507.9840805999702,,,,,,,,45,C,2024-01-03_14h48.27.242,gca_avoidance_task,2022.2.4,143.99967738462246,
positions.xlsx,stimuli.xlsx,stimuli/Social1.png,stimuli/Social2.png,stimuli/Nonsocial2.png,stimuli/Nonsocial1.png,,"(-0.7, 0.5)",cs_minus_ns,,,,,0,0,0,0,,,,,,,,,2,14,46,12,,,,,,,,,,,,,,,,,,,,,1517.6851038999157,195,reward,1,0.5903475000523031,0.5903511000797153,1518.2823199999984,,,,,,,,45,C,2024-01-03_14h48.27.242,gca_avoidance_task,2022.2.4,143.99967738462246,
positions.xlsx,stimuli.xlsx,stimuli/Social1.png,stimuli/Social2.png,stimuli/Nonsocial2.png,stimuli/Nonsocial1.png,,"(0.7, -0.5)",cs_minus_s,,,,,0,0,0,0,,,,,,,,,2,15,47,7,,,,,,,,,,,,,,,,,,,,,1527.8513695999281,200,reward,1,0.819323500036262,0.8193270999472588,1528.677723599947,,,,,,,,45,C,2024-01-03_14h48.27.242,gca_avoidance_task,2022.2.4,143.99967738462246,
positions.xlsx,stimuli.xlsx,stimuli/Social1.png,stimuli/Social2.png,stimuli/Nonsocial2.png,stimuli/Nonsocial1.png,,"(-0.7, -0.5)",cs_minus_ns,,,,,0,0,0,0,,,,,,,,,3,0,48,13,,,,,,,,,,,,,,,,,,,,,1538.267663299921,205,reward,1,0.6526873999973759,0.652691200026311,1538.9273357999045,,,,,,,,45,C,2024-01-03_14h48.27.242,gca_avoidance_task,2022.2.4,143.99967738462246,
positions.xlsx,stimuli.xlsx,stimuli/Social1.png,stimuli/Social2.png,stimuli/Nonsocial2.png,stimuli/Nonsocial1.png,,"(0.7, -0.5)",cs_minus_s,,,,,0,0,0,0,,,,,,,,,3,1,49,7,,,,,,,,,,,,,,,,,,,,,1548.1283667999087,210,reward,1,0.7012675000587478,0.7012710000853986,1548.8366691999836,,,,,,,,45,C,2024-01-03_14h48.27.242,gca_avoidance_task,2022.2.4,143.99967738462246,
positions.xlsx,stimuli.xlsx,stimuli/Social1.png,stimuli/Social2.png,stimuli/Nonsocial2.png,stimuli/Nonsocial1.png,,"(0.7, 0.5)",cs_plus_s,,,,,0,0,0,0,,,,,,,,,3,2,50,2,,,,,,,,,,,,,,,,,,,,,1557.982132999925,210,shock,1,0.3402671000221744,0.3402709999354556,1558.3293785999995,,,,,,,,45,C,2024-01-03_14h48.27.242,gca_avoidance_task,2022.2.4,143.99967738462246,
positions.xlsx,stimuli.xlsx,stimuli/Social1.png,stimuli/Social2.png,stimuli/Nonsocial2.png,stimuli/Nonsocial1.png,,"(0.7, -0.5)",cs_minus_ns,,,,,0,0,0,0,,,,,,,,,3,3,51,15,,,,,,,,,,,,,,,,,,,,,1567.5442924998933,215,reward,1,0.6249798000790179,0.6249831999884918,1568.176241499954,,,,,,,,45,C,2024-01-03_14h48.27.242,gca_avoidance_task,2022.2.4,143.99967738462246,
positions.xlsx,stimuli.xlsx,stimuli/Social1.png,stimuli/Social2.png,stimuli/Nonsocial2.png,stimuli/Nonsocial1.png,,"(0.7, -0.5)",cs_plus_s,,,,,0,0,0,0,,,,,,,,,3,4,52,3,,,,,,,,,,,,,,,,,,,,,1577.7105402000016,215,none,0,,,1582.7172824000008,,,,,,,,45,C,2024-01-03_14h48.27.242,gca_avoidance_task,2022.2.4,143.99967738462246,
positions.xlsx,stimuli.xlsx,stimuli/Social1.png,stimuli/Social2.png,stimuli/Nonsocial2.png,stimuli/Nonsocial1.png,,"(0.7, 0.5)",cs_plus_ns,,,,,0,0,0,0,,,,,,,,,3,5,53,10,,,,,,,,,,,,,,,,,,,,,1591.8072010999313,215,none,0,,,1596.8139674999984,,,,,,,,45,C,2024-01-03_14h48.27.242,gca_avoidance_task,2022.2.4,143.99967738462246,
positions.xlsx,stimuli.xlsx,stimuli/Social1.png,stimuli/Social2.png,stimuli/Nonsocial2.png,stimuli/Nonsocial1.png,,"(-0.7, -0.5)",cs_minus_s,,,,,0,0,0,0,,,,,,,,,3,6,54,5,,,,,,,,,,,,,,,,,,,,,1606.3760981999803,220,reward,1,0.22923309996258467,0.2292365999892354,1606.6122389999218,,,,,,,,45,C,2024-01-03_14h48.27.242,gca_avoidance_task,2022.2.4,143.99967738462246,
positions.xlsx,stimuli.xlsx,stimuli/Social1.png,stimuli/Social2.png,stimuli/Nonsocial2.png,stimuli/Nonsocial1.png,,"(0.7, -0.5)",cs_plus_ns,,,,,0,0,0,0,,,,,,,,,3,7,55,11,,,,,,,,,,,,,,,,,,,,,1616.3687333998969,220,none,0,,,1621.375520600006,,,,,,,,45,C,2024-01-03_14h48.27.242,gca_avoidance_task,2022.2.4,143.99967738462246,
positions.xlsx,stimuli.xlsx,stimuli/Social1.png,stimuli/Social2.png,stimuli/Nonsocial2.png,stimuli/Nonsocial1.png,,"(-0.7, 0.5)",cs_minus_ns,,,,,0,0,0,0,,,,,,,,,3,8,56,12,,,,,,,,,,,,,,,,,,,,,1631.2362643999513,225,reward,1,0.5982116999803111,0.5982151000062004,1631.8403703999938,,,,,,,,45,C,2024-01-03_14h48.27.242,gca_avoidance_task,2022.2.4,143.99967738462246,
positions.xlsx,stimuli.xlsx,stimuli/Social1.png,stimuli/Social2.png,stimuli/Nonsocial2.png,stimuli/Nonsocial1.png,,"(0.7, 0.5)",cs_minus_s,,,,,0,0,0,0,,,,,,,,,3,9,57,6,,,,,,,,,,,,,,,,,,,,,1641.9788762999233,230,reward,1,0.8055230000754818,0.8055268001044169,1642.7913327999413,,,,,,,,45,C,2024-01-03_14h48.27.242,gca_avoidance_task,2022.2.4,143.99967738462246,
positions.xlsx,stimuli.xlsx,stimuli/Social1.png,stimuli/Social2.png,stimuli/Nonsocial2.png,stimuli/Nonsocial1.png,,"(-0.7, -0.5)",cs_plus_s,,,,,0,0,0,0,,,,,,,,,3,10,58,1,,,,,,,,,,,,,,,,,,,,,1651.8673653999576,230,none,0,,,1656.8741214999463,,,,,,,,45,C,2024-01-03_14h48.27.242,gca_avoidance_task,2022.2.4,143.99967738462246,
positions.xlsx,stimuli.xlsx,stimuli/Social1.png,stimuli/Social2.png,stimuli/Nonsocial2.png,stimuli/Nonsocial1.png,,"(0.7, 0.5)",cs_minus_ns,,,,,0,0,0,0,,,,,,,,,3,11,59,14,,,,,,,,,,,,,,,,,,,,,1665.783488499932,235,reward,1,0.007523300009779632,0.007540200022049248,1665.783488499932,,,,,,,,45,C,2024-01-03_14h48.27.242,gca_avoidance_task,2022.2.4,143.99967738462246,
positions.xlsx,stimuli.xlsx,stimuli/Social1.png,stimuli/Social2.png,stimuli/Nonsocial2.png,stimuli/Nonsocial1.png,,"(-0.7, 0.5)",cs_plus_s,,,,,0,0,0,0,,,,,,,,,3,12,60,0,,,,,,,,,,,,,,,,,,,,,1675.6372818999225,235,none,0,,,1680.6440408999333,,,,,,,,45,C,2024-01-03_14h48.27.242,gca_avoidance_task,2022.2.4,143.99967738462246,
positions.xlsx,stimuli.xlsx,stimuli/Social1.png,stimuli/Social2.png,stimuli/Nonsocial2.png,stimuli/Nonsocial1.png,,"(-0.7, -0.5)",cs_plus_ns,,,,,0,0,0,0,,,,,,,,,3,13,61,9,,,,,,,,,,,,,,,,,,,,,1690.3589470000006,235,none,0,,,1695.365716499975,,,,,,,,45,C,2024-01-03_14h48.27.242,gca_avoidance_task,2022.2.4,143.99967738462246,
positions.xlsx,stimuli.xlsx,stimuli/Social1.png,stimuli/Social2.png,stimuli/Nonsocial2.png,stimuli/Nonsocial1.png,,"(-0.7, 0.5)",cs_minus_s,,,,,0,0,0,0,,,,,,,,,3,14,62,4,,,,,,,,,,,,,,,,,,,,,1704.0736934999004,240,reward,1,0.5347426999360323,0.5347467999672517,1704.6153430999257,,,,,,,,45,C,2024-01-03_14h48.27.242,gca_avoidance_task,2022.2.4,143.99967738462246,
positions.xlsx,stimuli.xlsx,stimuli/Social1.png,stimuli/Social2.png,stimuli/Nonsocial2.png,stimuli/Nonsocial1.png,,"(-0.7, 0.5)",cs_plus_ns,,,,,0,0,0,0,,,,,,,,,3,15,63,8,,,,,,,,,,,,,,,,,,,,,1714.6218980998965,240,none,0,,,1719.6286198999733,,,,,,,,45,C,2024-01-03_14h48.27.242,gca_avoidance_task,2022.2.4,143.99967738462246,
positions.xlsx,stimuli.xlsx,stimuli/Social1.png,stimuli/Social2.png,stimuli/Nonsocial2.png,stimuli/Nonsocial1.png,,"(0.7, -0.5)",cs_plus_ns,,,,,0,0,0,0,,,,,,,,,4,0,64,11,,,,,,,,,,,,,,,,,,,,,1728.90606389998,240,shock,1,0.18063319998327643,0.1806372000137344,1729.0935510999989,,,,,,,,45,C,2024-01-03_14h48.27.242,gca_avoidance_task,2022.2.4,143.99967738462246,
positions.xlsx,stimuli.xlsx,stimuli/Social1.png,stimuli/Social2.png,stimuli/Nonsocial2.png,stimuli/Nonsocial1.png,,"(0.7, -0.5)",cs_minus_ns,,,,,0,0,0,0,,,,,,,,,4,1,65,15,,,,,,,,,,,,,,,,,,,,,1738.3362554999767,245,reward,1,0.923490299959667,0.9234940999886021,1739.266831099987,,,,,,,,45,C,2024-01-03_14h48.27.242,gca_avoidance_task,2022.2.4,143.99967738462246,
positions.xlsx,stimuli.xlsx,stimuli/Social1.png,stimuli/Social2.png,stimuli/Nonsocial2.png,stimuli/Nonsocial1.png,,"(-0.7, 0.5)",cs_plus_ns,,,,,0,0,0,0,,,,,,,,,4,2,66,8,,,,,,,,,,,,,,,,,,,,,1748.4539241999155,245,none,0,,,1753.4606607999885,,,,,,,,45,C,2024-01-03_14h48.27.242,gca_avoidance_task,2022.2.4,143.99967738462246,
positions.xlsx,stimuli.xlsx,stimuli/Social1.png,stimuli/Social2.png,stimuli/Nonsocial2.png,stimuli/Nonsocial1.png,,"(0.7, 0.5)",cs_plus_s,,,,,0,0,0,0,,,,,,,,,4,3,67,2,,,,,,,,,,,,,,,,,,,,,1762.9255530999508,245,none,0,,,1767.9323222999228,,,,,,,,45,C,2024-01-03_14h48.27.242,gca_avoidance_task,2022.2.4,143.99967738462246,
positions.xlsx,stimuli.xlsx,stimuli/Social1.png,stimuli/Social2.png,stimuli/Nonsocial2.png,stimuli/Nonsocial1.png,,"(-0.7, -0.5)",cs_minus_ns,,,,,0,0,0,0,,,,,,,,,4,4,68,13,,,,,,,,,,,,,,,,,,,,,1776.7305876999162,250,reward,1,0.5558297999668866,0.5558335999958217,1777.2930891999276,,,,,,,,45,C,2024-01-03_14h48.27.242,gca_avoidance_task,2022.2.4,143.99967738462246,
positions.xlsx,stimuli.xlsx,stimuli/Social1.png,stimuli/Social2.png,stimuli/Nonsocial2.png,stimuli/Nonsocial1.png,,"(0.7, 0.5)",cs_minus_s,,,,,0,0,0,0,,,,,,,,,4,5,69,6,,,,,,,,,,,,,,,,,,,,,1786.6607774998993,255,reward,1,0.7850199000677094,0.7850235999794677,1787.4523802999174,,,,,,,,45,C,2024-01-03_14h48.27.242,gca_avoidance_task,2022.2.4,143.99967738462246,
positions.xlsx,stimuli.xlsx,stimuli/Social1.png,stimuli/Social2.png,stimuli/Nonsocial2.png,stimuli/Nonsocial1.png,,"(0.7, 0.5)",cs_plus_ns,,,,,0,0,0,0,,,,,,,,,4,6,70,10,,,,,,,,,,,,,,,,,,,,,1797.3339746999554,255,none,0,,,1802.340692800004,,,,,,,,45,C,2024-01-03_14h48.27.242,gca_avoidance_task,2022.2.4,143.99967738462246,
positions.xlsx,stimuli.xlsx,stimuli/Social1.png,stimuli/Social2.png,stimuli/Nonsocial2.png,stimuli/Nonsocial1.png,,"(-0.7, 0.5)",cs_minus_ns,,,,,0,0,0,0,,,,,,,,,4,7,71,12,,,,,,,,,,,,,,,,,,,,,1812.1736603999743,260,reward,1,0.2640398000366986,0.26404359994921833,1812.4444820999634,,,,,,,,45,C,2024-01-03_14h48.27.242,gca_avoidance_task,2022.2.4,143.99967738462246,
positions.xlsx,stimuli.xlsx,stimuli/Social1.png,stimuli/Social2.png,stimuli/Nonsocial2.png,stimuli/Nonsocial1.png,,"(0.7, -0.5)",cs_plus_s,,,,,0,0,0,0,,,,,,,,,4,8,72,3,,,,,,,,,,,,,,,,,,,,,1821.9093595999293,260,none,0,,,1826.9161361999577,,,,,,,,45,C,2024-01-03_14h48.27.242,gca_avoidance_task,2022.2.4,143.99967738462246,
positions.xlsx,stimuli.xlsx,stimuli/Social1.png,stimuli/Social2.png,stimuli/Nonsocial2.png,stimuli/Nonsocial1.png,,"(-0.7, -0.5)",cs_plus_s,,,,,0,0,0,0,,,,,,,,,4,9,73,1,,,,,,,,,,,,,,,,,,,,,1836.325479399995,260,none,0,,,1841.3322177999653,,,,,,,,45,C,2024-01-03_14h48.27.242,gca_avoidance_task,2022.2.4,143.99967738462246,
positions.xlsx,stimuli.xlsx,stimuli/Social1.png,stimuli/Social2.png,stimuli/Nonsocial2.png,stimuli/Nonsocial1.png,,"(0.7, -0.5)",cs_minus_s,,,,,0,0,0,0,,,,,,,,,4,10,74,7,,,,,,,,,,,,,,,,,,,,,1850.0610700999387,265,reward,1,0.5628440000582486,0.5628477000864223,1850.630489999894,,,,,,,,45,C,2024-01-03_14h48.27.242,gca_avoidance_task,2022.2.4,143.99967738462246,
positions.xlsx,stimuli.xlsx,stimuli/Social1.png,stimuli/Social2.png,stimuli/Nonsocial2.png,stimuli/Nonsocial1.png,,"(-0.7, -0.5)",cs_minus_s,,,,,0,0,0,0,,,,,,,,,4,11,75,5,,,,,,,,,,,,,,,,,,,,,1861.0120414999546,270,reward,1,0.2012991999508813,0.20130259997677058,1861.2203407000052,,,,,,,,45,C,2024-01-03_14h48.27.242,gca_avoidance_task,2022.2.4,143.99967738462246,
positions.xlsx,stimuli.xlsx,stimuli/Social1.png,stimuli/Social2.png,stimuli/Nonsocial2.png,stimuli/Nonsocial1.png,,"(0.7, 0.5)",cs_minus_ns,,,,,0,0,0,0,,,,,,,,,4,12,76,14,,,,,,,,,,,,,,,,,,,,,1871.0880134999752,275,reward,1,0.7432828000746667,0.7432866001036018,1871.8379677999765,,,,,,,,45,C,2024-01-03_14h48.27.242,gca_avoidance_task,2022.2.4,143.99967738462246,
positions.xlsx,stimuli.xlsx,stimuli/Social1.png,stimuli/Social2.png,stimuli/Nonsocial2.png,stimuli/Nonsocial1.png,,"(-0.7, 0.5)",cs_minus_s,,,,,0,0,0,0,,,,,,,,,4,13,77,4,,,,,,,,,,,,,,,,,,,,,1880.8723779999418,280,reward,1,0.6877025000285357,0.6877062999410555,1881.566838299972,,,,,,,,45,C,2024-01-03_14h48.27.242,gca_avoidance_task,2022.2.4,143.99967738462246,
positions.xlsx,stimuli.xlsx,stimuli/Social1.png,stimuli/Social2.png,stimuli/Nonsocial2.png,stimuli/Nonsocial1.png,,"(-0.7, 0.5)",cs_plus_s,,,,,0,0,0,0,,,,,,,,,4,14,78,0,,,,,,,,,,,,,,,,,,,,,1891.0594545999775,280,none,0,,,1896.0662134999875,,,,,,,,45,C,2024-01-03_14h48.27.242,gca_avoidance_task,2022.2.4,143.99967738462246,
positions.xlsx,stimuli.xlsx,stimuli/Social1.png,stimuli/Social2.png,stimuli/Nonsocial2.png,stimuli/Nonsocial1.png,,"(-0.7, -0.5)",cs_plus_ns,,,,,0,0,0,0,,,,,,,,,4,15,79,9,,,,,,,,,,,,,,,,,,,,,1906.2533204999054,280,none,0,,,1911.2600621999009,,,,,,,,45,C,2024-01-03_14h48.27.242,gca_avoidance_task,2022.2.4,143.99967738462246,
positions.xlsx,stimuli.xlsx,stimuli/Social1.png,stimuli/Social2.png,stimuli/Nonsocial2.png,stimuli/Nonsocial1.png,cs_minus_ns,,,,,,,0,0,0,0,,,,,,,,,,,,,0,0,0,3,,,,,,,,,,,,,1927.5302976999665,7.0,3.807716300012544,,,,,,,,,5.0,7.03521549992729,,,,,,45,C,2024-01-03_14h48.27.242,gca_avoidance_task,2022.2.4,143.99967738462246,
positions.xlsx,stimuli.xlsx,stimuli/Social1.png,stimuli/Social2.png,stimuli/Nonsocial2.png,stimuli/Nonsocial1.png,cs_plus_ns,,,,,,,0,0,0,0,,,,,,,,,,,,,0,1,1,1,,,,,,,,,,,,,1932.2384257999947,3.0,3.291410799953155,,,,,,,,,,,,,,,,45,C,2024-01-03_14h48.27.242,gca_avoidance_task,2022.2.4,143.99967738462246,
positions.xlsx,stimuli.xlsx,stimuli/Social1.png,stimuli/Social2.png,stimuli/Nonsocial2.png,stimuli/Nonsocial1.png,cs_plus_s,,,,,,,0,0,0,0,,,,,,,,,,,,,0,2,2,0,,,,,,,,,,,,,1936.3424641999882,4.0,3.1459505000384524,,,,,,,,,,,,,,,,45,C,2024-01-03_14h48.27.242,gca_avoidance_task,2022.2.4,143.99967738462246,
positions.xlsx,stimuli.xlsx,stimuli/Social1.png,stimuli/Social2.png,stimuli/Nonsocial2.png,stimuli/Nonsocial1.png,cs_minus_s,,,,,,,0,0,0,0,,,,,,,,,,,,,0,3,3,2,,,,,,,,,,,,,1940.2242796999635,8.0,2.361350799910724,,,,,,,,,,,,,,,,45,C,2024-01-03_14h48.27.242,gca_avoidance_task,2022.2.4,143.99967738462246,
positions.xlsx,stimuli.xlsx,stimuli/Social1.png,stimuli/Social2.png,stimuli/Nonsocial2.png,stimuli/Nonsocial1.png,cs_plus_ns,,,,,,,0,0,0,0,,,,,,,,,,,,,,,,,0,0,0,1,,,,,,,,,,,,,,,,,,,,,,1943.5713228998939,1948.7933586,2,0.023823400028049946,5.819146200083196,45,C,2024-01-03_14h48.27.242,gca_avoidance_task,2022.2.4,143.99967738462246,
positions.xlsx,stimuli.xlsx,stimuli/Social1.png,stimuli/Social2.png,stimuli/Nonsocial2.png,stimuli/Nonsocial1.png,cs_plus_s,,,,,,,0,0,0,0,,,,,,,,,,,,,,,,,0,1,1,0,,,,,,,,,,,,,,,,,,,,,,,1964.0497125999536,4,0.014164899941533804,3.014292099978775,45,C,2024-01-03_14h48.27.242,gca_avoidance_task,2022.2.4,143.99967738462246,
positions.xlsx,stimuli.xlsx,stimuli/Social1.png,stimuli/Social2.png,stimuli/Nonsocial2.png,stimuli/Nonsocial1.png,cs_minus_s,,,,,,,0,0,0,0,,,,,,,,,,,,,,,,,0,2,2,2,,,,,,,,,,,,,,,,,,,,,,,1978.5769212999148,4,0.014551099971868098,1.04201400000602,45,C,2024-01-03_14h48.27.242,gca_avoidance_task,2022.2.4,143.99967738462246,
positions.xlsx,stimuli.xlsx,stimuli/Social1.png,stimuli/Social2.png,stimuli/Nonsocial2.png,stimuli/Nonsocial1.png,cs_minus_ns,,,,,,,0,0,0,0,,,,,,,,,,,,,,,,,0,3,3,3,,,,,,,,,,,,,,,,,,,,,,,1993.7291137999855,5,0.015143900061957538,0.937846300075762,45,C,2024-01-03_14h48.27.242,gca_avoidance_task,2022.2.4,143.99967738462246,
positions.xlsx,stimuli.xlsx,stimuli/Social1.png,stimuli/Social2.png,stimuli/Nonsocial2.png,stimuli/Nonsocial1.png,cs_minus_ns,,,,,,,0,0,0,0,,,,,,,,,,,,,,,,,1,0,4,3,,,,,,,,,,,,,,,,,,,,,,,2008.32576659997,2,0.014880100032314658,6.298848700011149,45,C,2024-01-03_14h48.27.242,gca_avoidance_task,2022.2.4,143.99967738462246,
positions.xlsx,stimuli.xlsx,stimuli/Social1.png,stimuli/Social2.png,stimuli/Nonsocial2.png,stimuli/Nonsocial1.png,cs_plus_ns,,,,,,,0,0,0,0,,,,,,,,,,,,,,,,,1,1,5,1,,,,,,,,,,,,,,,,,,,,,,,2023.4849284999073,5,0.17404239997267723,1.9588046000571921,45,C,2024-01-03_14h48.27.242,gca_avoidance_task,2022.2.4,143.99967738462246,
positions.xlsx,stimuli.xlsx,stimuli/Social1.png,stimuli/Social2.png,stimuli/Nonsocial2.png,stimuli/Nonsocial1.png,cs_minus_s,,,,,,,0,0,0,0,,,,,,,,,,,,,,,,,1,2,6,2,,,,,,,,,,,,,,,,,,,,,,,2038.2898693999741,6,0.06999960006214678,3.9725293000228703,45,C,2024-01-03_14h48.27.242,gca_avoidance_task,2022.2.4,143.99967738462246,
positions.xlsx,stimuli.xlsx,stimuli/Social1.png,stimuli/Social2.png,stimuli/Nonsocial2.png,stimuli/Nonsocial1.png,cs_plus_s,,,,,,,0,0,0,0,,,,,,,,,,,,,,,,,1,3,7,0,,,,,,,,,,,,,,,,,,,,,,,2053.2268090998987,3,0.015055799973197281,3.8544337999774143,45,C,2024-01-03_14h48.27.242,gca_avoidance_task,2022.2.4,143.99967738462246,
positions.xlsx,stimuli.xlsx,stimuli/Social1.png,stimuli/Social2.png,stimuli/Nonsocial2.png,stimuli/Nonsocial1.png,cs_plus_s,,,,,,,0,0,0,0,,,,,,,,,,,,,,,,,2,0,8,0,,,,,,,,,,,,,,,,,,,,,,,2067.84434099996,4,0.015485300100408494,0.41704630001913756,45,C,2024-01-03_14h48.27.242,gca_avoidance_task,2022.2.4,143.99967738462246,
positions.xlsx,stimuli.xlsx,stimuli/Social1.png,stimuli/Social2.png,stimuli/Nonsocial2.png,stimuli/Nonsocial1.png,cs_plus_ns,,,,,,,0,0,0,0,,,,,,,,,,,,,,,,,2,1,9,1,,,,,,,,,,,,,,,,,,,,,,,2083.0659140999196,3,0.014180999947711825,1.1807541999733075,45,C,2024-01-03_14h48.27.242,gca_avoidance_task,2022.2.4,143.99967738462246,
positions.xlsx,stimuli.xlsx,stimuli/Social1.png,stimuli/Social2.png,stimuli/Nonsocial2.png,stimuli/Nonsocial1.png,cs_minus_s,,,,,,,0,0,0,0,,,,,,,,,,,,,,,,,2,2,10,2,,,,,,,,,,,,,,,,,,,,,,,2098.495867099962,3,0.222684400039725,1.8961394999641925,45,C,2024-01-03_14h48.27.242,gca_avoidance_task,2022.2.4,143.99967738462246,
positions.xlsx,stimuli.xlsx,stimuli/Social1.png,stimuli/Social2.png,stimuli/Nonsocial2.png,stimuli/Nonsocial1.png,cs_minus_ns,,,,,,,0,0,0,0,,,,,,,,,,,,,,,,,2,3,11,3,,,,,,,,,,,,,,,,,,,,,,,2113.6064040999627,5,0.6323754999320954,1.0074028000235558,45,C,2024-01-03_14h48.27.242,gca_avoidance_task,2022.2.4,143.99967738462246,
positions.xlsx,stimuli.xlsx,stimuli/Social1.png,stimuli/Social2.png,stimuli/Nonsocial2.png,stimuli/Nonsocial1.png,cs_minus_s,,,,,,,0,0,0,0,,,,,,,,,,,,,,,,,3,0,12,2,,,,,,,,,,,,,,,,,,,,,,,2128.3627713999012,4,0.013941099983640015,0.45184770005289465,45,C,2024-01-03_14h48.27.242,gca_avoidance_task,2022.2.4,143.99967738462246,
positions.xlsx,stimuli.xlsx,stimuli/Social1.png,stimuli/Social2.png,stimuli/Nonsocial2.png,stimuli/Nonsocial1.png,cs_plus_s,,,,,,,0,0,0,0,,,,,,,,,,,,,,,,,3,1,13,0,,,,,,,,,,,,,,,,,,,,,,,2143.6607852999587,2,0.01344260002952069,6.319546499988064,45,C,2024-01-03_14h48.27.242,gca_avoidance_task,2022.2.4,143.99967738462246,
positions.xlsx,stimuli.xlsx,stimuli/Social1.png,stimuli/Social2.png,stimuli/Nonsocial2.png,stimuli/Nonsocial1.png,cs_plus_ns,,,,,,,0,0,0,0,,,,,,,,,,,,,,,,,3,2,14,1,,,,,,,,,,,,,,,,,,,,,,,2159.0699088999536,3,0.01561620004940778,0.7296011000871658,45,C,2024-01-03_14h48.27.242,gca_avoidance_task,2022.2.4,143.99967738462246,
positions.xlsx,stimuli.xlsx,stimuli/Social1.png,stimuli/Social2.png,stimuli/Nonsocial2.png,stimuli/Nonsocial1.png,cs_minus_ns,,,,,,,0,0,0,0,,,,,,,,,,,,,,,,,3,3,15,3,,,,,,,,,,,,,,,,,,,,,,,2173.736015299917,4,0.014072800055146217,0.6322412000736222,45,C,2024-01-03_14h48.27.242,gca_avoidance_task,2022.2.4,143.99967738462246,
positions.xlsx,stimuli.xlsx,stimuli/Social1.png,stimuli/Social2.png,stimuli/Nonsocial2.png,stimuli/Nonsocial1.png,cs_plus_ns,,,,,,,0,0,0,0,,,,,,,,,,,,,,,,,4,0,16,1,,,,,,,,,,,,,,,,,,,,,,,2189.0895773998927,4,0.2920983999501914,1.3544865000294521,45,C,2024-01-03_14h48.27.242,gca_avoidance_task,2022.2.4,143.99967738462246,
positions.xlsx,stimuli.xlsx,stimuli/Social1.png,stimuli/Social2.png,stimuli/Nonsocial2.png,stimuli/Nonsocial1.png,cs_plus_s,,,,,,,0,0,0,0,,,,,,,,,,,,,,,,,4,1,17,0,,,,,,,,,,,,,,,,,,,,,,,2203.8598410999402,5,0.18801729998085648,2.7364451000466943,45,C,2024-01-03_14h48.27.242,gca_avoidance_task,2022.2.4,143.99967738462246,
positions.xlsx,stimuli.xlsx,stimuli/Social1.png,stimuli/Social2.png,stimuli/Nonsocial2.png,stimuli/Nonsocial1.png,cs_minus_s,,,,,,,0,0,0,0,,,,,,,,,,,,,,,,,4,2,18,2,,,,,,,,,,,,,,,,,,,,,,,2218.4495440999744,4,0.014315700042061508,1.4866358999861404,45,C,2024-01-03_14h48.27.242,gca_avoidance_task,2022.2.4,143.99967738462246,
positions.xlsx,stimuli.xlsx,stimuli/Social1.png,stimuli/Social2.png,stimuli/Nonsocial2.png,stimuli/Nonsocial1.png,cs_minus_ns,,,,,,,0,0,0,0,,,,,,,,,,,,,,,,,4,3,19,3,,,,,,,,,,,,,,,,,,,,,,,2233.53230839991,3,0.014996499987319112,0.9030506000854075,45,C,2024-01-03_14h48.27.242,gca_avoidance_task,2022.2.4,143.99967738462246,
positions.xlsx,stimuli.xlsx,stimuli/Social1.png,stimuli/Social2.png,stimuli/Nonsocial2.png,stimuli/Nonsocial1.png,cs_minus_ns,,,,,,,0,0,0,0,,,,,,,,,,,,,,,,,5,0,20,3,,,,,,,,,,,,,,,,,,,,,,,2248.462287799921,5,0.015249600051902235,3.0837154000764713,45,C,2024-01-03_14h48.27.242,gca_avoidance_task,2022.2.4,143.99967738462246,
positions.xlsx,stimuli.xlsx,stimuli/Social1.png,stimuli/Social2.png,stimuli/Nonsocial2.png,stimuli/Nonsocial1.png,cs_minus_s,,,,,,,0,0,0,0,,,,,,,,,,,,,,,,,5,1,21,2,,,,,,,,,,,,,,,,,,,,,,,2263.7533415999496,7,0.014575900044292212,2.8475133000174537,45,C,2024-01-03_14h48.27.242,gca_avoidance_task,2022.2.4,143.99967738462246,
positions.xlsx,stimuli.xlsx,stimuli/Social1.png,stimuli/Social2.png,stimuli/Nonsocial2.png,stimuli/Nonsocial1.png,cs_plus_ns,,,,,,,0,0,0,0,,,,,,,,,,,,,,,,,5,2,22,1,,,,,,,,,,,,,,,,,,,,,,,2278.8499991999706,4,0.014951999997720122,0.42387960001360625,45,C,2024-01-03_14h48.27.242,gca_avoidance_task,2022.2.4,143.99967738462246,
positions.xlsx,stimuli.xlsx,stimuli/Social1.png,stimuli/Social2.png,stimuli/Nonsocial2.png,stimuli/Nonsocial1.png,cs_plus_s,,,,,,,0,0,0,0,,,,,,,,,,,,,,,,,5,3,23,0,,,,,,,,,,,,,,,,,,,,,,,2293.759198099957,4,0.2715424000052735,1.340639799949713,45,C,2024-01-03_14h48.27.242,gca_avoidance_task,2022.2.4,143.99967738462246,
positions.xlsx,stimuli.xlsx,stimuli/Social1.png,stimuli/Social2.png,stimuli/Nonsocial2.png,stimuli/Nonsocial1.png,cs_minus_s,,,,,,,0,0,0,0,,,,,,,,,,,,,,,,,6,0,24,2,,,,,,,,,,,,,,,,,,,,,,,2309.119635699899,4,0.1463145000161603,1.2503609000705183,45,C,2024-01-03_14h48.27.242,gca_avoidance_task,2022.2.4,143.99967738462246,
positions.xlsx,stimuli.xlsx,stimuli/Social1.png,stimuli/Social2.png,stimuli/Nonsocial2.png,stimuli/Nonsocial1.png,cs_minus_ns,,,,,,,0,0,0,0,,,,,,,,,,,,,,,,,6,1,25,3,,,,,,,,,,,,,,,,,,,,,,,2324.389895299915,3,0.01444269996136427,3.4726071000332013,45,C,2024-01-03_14h48.27.242,gca_avoidance_task,2022.2.4,143.99967738462246,
positions.xlsx,stimuli.xlsx,stimuli/Social1.png,stimuli/Social2.png,stimuli/Nonsocial2.png,stimuli/Nonsocial1.png,cs_plus_s,,,,,,,0,0,0,0,,,,,,,,,,,,,,,,,6,2,26,0,,,,,,,,,,,,,,,,,,,,,,,2339.0559940999374,3,0.013465799973346293,3.5697402000660077,45,C,2024-01-03_14h48.27.242,gca_avoidance_task,2022.2.4,143.99967738462246,
positions.xlsx,stimuli.xlsx,stimuli/Social1.png,stimuli/Social2.png,stimuli/Nonsocial2.png,stimuli/Nonsocial1.png,cs_plus_ns,,,,,,,0,0,0,0,,,,,,,,,,,,,,,,,6,3,27,1,,,,,,,,,,,,,,,,,,,,,,,2354.4581601999234,2,0.014300400041975081,3.0141194000607356,45,C,2024-01-03_14h48.27.242,gca_avoidance_task,2022.2.4,143.99967738462246,
positions.xlsx,stimuli.xlsx,stimuli/Social1.png,stimuli/Social2.png,stimuli/Nonsocial2.png,stimuli/Nonsocial1.png,cs_minus_ns,,,,,,,0,0,0,0,,,,,,,,,,,,,,,,,7,0,28,3,,,,,,,,,,,,,,,,,,,,,,,2369.8673131999094,3,0.0146752999862656,7.624921899987385,45,C,2024-01-03_14h48.27.242,gca_avoidance_task,2022.2.4,143.99967738462246,
positions.xlsx,stimuli.xlsx,stimuli/Social1.png,stimuli/Social2.png,stimuli/Nonsocial2.png,stimuli/Nonsocial1.png,cs_minus_s,,,,,,,0,0,0,0,,,,,,,,,,,,,,,,,7,1,29,2,,,,,,,,,,,,,,,,,,,,,,,2385.2972527999664,6,0.013208699994720519,1.0148585999850184,45,C,2024-01-03_14h48.27.242,gca_avoidance_task,2022.2.4,143.99967738462246,
positions.xlsx,stimuli.xlsx,stimuli/Social1.png,stimuli/Social2.png,stimuli/Nonsocial2.png,stimuli/Nonsocial1.png,cs_plus_s,,,,,,,0,0,0,0,,,,,,,,,,,,,,,,,7,2,30,0,,,,,,,,,,,,,,,,,,,,,,,2399.9633585999254,3,0.013666499988175929,0.8614217999856919,45,C,2024-01-03_14h48.27.242,gca_avoidance_task,2022.2.4,143.99967738462246,
positions.xlsx,stimuli.xlsx,stimuli/Social1.png,stimuli/Social2.png,stimuli/Nonsocial2.png,stimuli/Nonsocial1.png,cs_plus_ns,,,,,,,0,0,0,0,,,,,,,,,,,,,,,,,7,3,31,1,,,,,,,,,,,,,,,,,,,,,,,2415.233600599924,3,0.03515210002660751,2.60453300003428,45,C,2024-01-03_14h48.27.242,gca_avoidance_task,2022.2.4,143.99967738462246,
positions.xlsx,stimuli.xlsx,stimuli/Social1.png,stimuli/Social2.png,stimuli/Nonsocial2.png,stimuli/Nonsocial1.png,cs_minus_ns,,,,,,,0,0,0,0,,,,,,,,,,,,,,,,,8,0,32,3,,,,,,,,,,,,,,,,,,,,,,,2429.9969128000084,4,0.18096580007113516,0.6045354000525549,45,C,2024-01-03_14h48.27.242,gca_avoidance_task,2022.2.4,143.99967738462246,
positions.xlsx,stimuli.xlsx,stimuli/Social1.png,stimuli/Social2.png,stimuli/Nonsocial2.png,stimuli/Nonsocial1.png,cs_plus_ns,,,,,,,0,0,0,0,,,,,,,,,,,,,,,,,8,1,33,1,,,,,,,,,,,,,,,,,,,,,,,2444.8019044999965,4,0.01393300003837794,1.521161700016819,45,C,2024-01-03_14h48.27.242,gca_avoidance_task,2022.2.4,143.99967738462246,
positions.xlsx,stimuli.xlsx,stimuli/Social1.png,stimuli/Social2.png,stimuli/Nonsocial2.png,stimuli/Nonsocial1.png,cs_minus_s,,,,,,,0,0,0,0,,,,,,,,,,,,,,,,,8,2,34,2,,,,,,,,,,,,,,,,,,,,,,,2459.544380699983,4,0.013380299904383719,0.8130448999581859,45,C,2024-01-03_14h48.27.242,gca_avoidance_task,2022.2.4,143.99967738462246,
positions.xlsx,stimuli.xlsx,stimuli/Social1.png,stimuli/Social2.png,stimuli/Nonsocial2.png,stimuli/Nonsocial1.png,cs_plus_s,,,,,,,0,0,0,0,,,,,,,,,,,,,,,,,8,3,35,0,,,,,,,,,,,,,,,,,,,,,,,2474.4049129999476,6,0.013485400006175041,3.042418499942869,45,C,2024-01-03_14h48.27.242,gca_avoidance_task,2022.2.4,143.99967738462246,
positions.xlsx,stimuli.xlsx,stimuli/Social1.png,stimuli/Social2.png,stimuli/Nonsocial2.png,stimuli/Nonsocial1.png,cs_plus_s,,,,,,,0,0,0,0,,,,,,,,,,,,,,,,,9,0,36,0,,,,,,,,,,,,,,,,,,,,,,,2489.8070948999375,8,0.015907400054857135,0.04903720004949719,45,C,2024-01-03_14h48.27.242,gca_avoidance_task,2022.2.4,143.99967738462246,
positions.xlsx,stimuli.xlsx,stimuli/Social1.png,stimuli/Social2.png,stimuli/Nonsocial2.png,stimuli/Nonsocial1.png,cs_minus_s,,,,,,,0,0,0,0,,,,,,,,,,,,,,,,,9,1,37,2,,,,,,,,,,,,,,,,,,,,,,,2504.5357222999446,7,0.021458900067955256,0.028247400070540607,45,C,2024-01-03_14h48.27.242,gca_avoidance_task,2022.2.4,143.99967738462246,
positions.xlsx,stimuli.xlsx,stimuli/Social1.png,stimuli/Social2.png,stimuli/Nonsocial2.png,stimuli/Nonsocial1.png,cs_plus_ns,,,,,,,0,0,0,0,,,,,,,,,,,,,,,,,9,2,38,1,,,,,,,,,,,,,,,,,,,,,,,2519.8684019999346,3,0.18784829997457564,1.3267712999368086,45,C,2024-01-03_14h48.27.242,gca_avoidance_task,2022.2.4,143.99967738462246,
positions.xlsx,stimuli.xlsx,stimuli/Social1.png,stimuli/Social2.png,stimuli/Nonsocial2.png,stimuli/Nonsocial1.png,cs_minus_ns,,,,,,,0,0,0,0,,,,,,,,,,,,,,,,,9,3,39,3,,,,,,,,,,,,,,,,,,,,,,,2534.374861199991,4,0.01471090002451092,0.9585694000124931,45,C,2024-01-03_14h48.27.242,gca_avoidance_task,2022.2.4,143.99967738462246,
positions.xlsx,stimuli.xlsx,stimuli/Social1.png,stimuli/Social2.png,stimuli/Nonsocial2.png,stimuli/Nonsocial1.png,cs_minus_s,,,,,,,0,0,0,0,,,,,,,,,,,,,,,,,,,,,0,0,0,2,,,,,2548.0409615999088,7.0,7.7874998999759555,,,,,,,,,,,,,,,,45,C,2024-01-03_14h48.27.242,gca_avoidance_task,2022.2.4,143.99967738462246,
positions.xlsx,stimuli.xlsx,stimuli/Social1.png,stimuli/Social2.png,stimuli/Nonsocial2.png,stimuli/Nonsocial1.png,cs_plus_s,,,,,,,0,0,0,0,,,,,,,,,,,,,,,,,,,,,0,1,1,0,,,,,2561.630737899919,5.0,2.631598500069231,,,,,,,,,,,,,,,,45,C,2024-01-03_14h48.27.242,gca_avoidance_task,2022.2.4,143.99967738462246,
positions.xlsx,stimuli.xlsx,stimuli/Social1.png,stimuli/Social2.png,stimuli/Nonsocial2.png,stimuli/Nonsocial1.png,cs_plus_ns,,,,,,,0,0,0,0,,,,,,,,,,,,,,,,,,,,,0,2,2,1,,,,,2564.3528528999304,3.0,2.6313152000075206,,,,,,,,,,,,,,,,45,C,2024-01-03_14h48.27.242,gca_avoidance_task,2022.2.4,143.99967738462246,
positions.xlsx,stimuli.xlsx,stimuli/Social1.png,stimuli/Social2.png,stimuli/Nonsocial2.png,stimuli/Nonsocial1.png,cs_minus_ns,,,,,,,0,0,0,0,,,,,,,,,,,,,,,,,,,,,0,3,3,3,,,,,2567.11659469991,5.0,3.076566300005652,,,,,,,,,,,,,,,,45,C,2024-01-03_14h48.27.242,gca_avoidance_task,2022.2.4,143.99967738462246,
