posFile,stimFile,cs_plus_s,cs_minus_s,cs_plus_ns,cs_minus_ns,stimtype,position,trialtype,trials_threshold.thisRepN,trials_threshold.thisTrialN,trials_threshold.thisN,trials_threshold.thisIndex,blocks.thisRepN,blocks.thisTrialN,blocks.thisN,blocks.thisIndex,ratingtrials1.thisRepN,ratingtrials1.thisTrialN,ratingtrials1.thisN,ratingtrials1.thisIndex,learning_trials.thisRepN,learning_trials.thisTrialN,learning_trials.thisN,learning_trials.thisIndex,trials.thisRepN,trials.thisTrialN,trials.thisN,trials.thisIndex,ratingtrials2.thisRepN,ratingtrials2.thisTrialN,ratingtrials2.thisN,ratingtrials2.thisIndex,testtrials.thisRepN,testtrials.thisTrialN,testtrials.thisN,testtrials.thisIndex,ratingtrials3.thisRepN,ratingtrials3.thisTrialN,ratingtrials3.thisN,ratingtrials3.thisIndex,textStart.started,sliderPainT.response,sliderPainT.rt,textStartExp.started,imageRating.started,sliderStim.response,sliderStim.rt,textStartTask.started,image.started,score,outcome,roi.numLooks,roi.timesOn,roi.timesOff,imageFeedback.started,sliderPain.response,sliderPain.rt,textTestInstr.started,imageTest.started,roiTest.numLooks,roiTest.timesOn,roiTest.timesOff,participant,group,date,expName,psychopyVersion,frameRate,
,,,,,,,,,0,0,0,0,,,,,,,,,,,,,,,,,,,,,,,,,,,,,16.00859890016727,None,None,,,,,,,,,,,,,,,,,,,,47,A,2024-01-09_11h26.06.647,gca_avoidance_task,2022.2.4,143.9333535040401,
,,,,,,,,,1,0,1,0,,,,,,,,,,,,,,,,,,,,,,,,,,,,,,0.0,4.06909430003725,,,,,,,,,,,,,,,,,,,,47,A,2024-01-09_11h26.06.647,gca_avoidance_task,2022.2.4,143.9333535040401,
,,,,,,,,,2,0,2,0,,,,,,,,,,,,,,,,,,,,,,,,,,,,,,0.0,2.1635226998478174,,,,,,,,,,,,,,,,,,,,47,A,2024-01-09_11h26.06.647,gca_avoidance_task,2022.2.4,143.9333535040401,
,,,,,,,,,3,0,3,0,,,,,,,,,,,,,,,,,,,,,,,,,,,,,,0.0,2.650437999982387,,,,,,,,,,,,,,,,,,,,47,A,2024-01-09_11h26.06.647,gca_avoidance_task,2022.2.4,143.9333535040401,
,,,,,,,,,4,0,4,0,,,,,,,,,,,,,,,,,,,,,,,,,,,,,,1.0,1.4300063999835402,,,,,,,,,,,,,,,,,,,,47,A,2024-01-09_11h26.06.647,gca_avoidance_task,2022.2.4,143.9333535040401,
,,,,,,,,,5,0,5,0,,,,,,,,,,,,,,,,,,,,,,,,,,,,,,1.0,2.214167899917811,,,,,,,,,,,,,,,,,,,,47,A,2024-01-09_11h26.06.647,gca_avoidance_task,2022.2.4,143.9333535040401,
,,,,,,,,,6,0,6,0,,,,,,,,,,,,,,,,,,,,,,,,,,,,,,2.0,3.0591054998803884,,,,,,,,,,,,,,,,,,,,47,A,2024-01-09_11h26.06.647,gca_avoidance_task,2022.2.4,143.9333535040401,
,,,,,,,,,7,0,7,0,,,,,,,,,,,,,,,,,,,,,,,,,,,,,,2.0,2.036343799903989,,,,,,,,,,,,,,,,,,,,47,A,2024-01-09_11h26.06.647,gca_avoidance_task,2022.2.4,143.9333535040401,
,,,,,,,,,8,0,8,0,,,,,,,,,,,,,,,,,,,,,,,,,,,,,,3.0,1.4318172000348568,,,,,,,,,,,,,,,,,,,,47,A,2024-01-09_11h26.06.647,gca_avoidance_task,2022.2.4,143.9333535040401,
,,,,,,,,,9,0,9,0,,,,,,,,,,,,,,,,,,,,,,,,,,,,,,4.0,0.9957550000399351,,,,,,,,,,,,,,,,,,,,47,A,2024-01-09_11h26.06.647,gca_avoidance_task,2022.2.4,143.9333535040401,
,,,,,,,,,10,0,10,0,,,,,,,,,,,,,,,,,,,,,,,,,,,,,,6.0,1.6725747000891715,,,,,,,,,,,,,,,,,,,,47,A,2024-01-09_11h26.06.647,gca_avoidance_task,2022.2.4,143.9333535040401,
,,,,,,,,,11,0,11,0,,,,,,,,,,,,,,,,,,,,,,,,,,,,,,7.0,3.977383299963549,,,,,,,,,,,,,,,,,,,,47,A,2024-01-09_11h26.06.647,gca_avoidance_task,2022.2.4,143.9333535040401,
,,,,,,,,,12,0,12,0,,,,,,,,,,,,,,,,,,,,,,,,,,,,,,7.0,2.5086251001339406,,,,,,,,,,,,,,,,,,,,47,A,2024-01-09_11h26.06.647,gca_avoidance_task,2022.2.4,143.9333535040401,
,,,,,,,,,13,0,13,0,,,,,,,,,,,,,,,,,,,,,,,,,,,,,,8.0,4.276541100116447,,,,,,,,,,,,,,,,,,,,47,A,2024-01-09_11h26.06.647,gca_avoidance_task,2022.2.4,143.9333535040401,
,,,,,,,,,14,0,14,0,,,,,,,,,,,,,,,,,,,,,,,,,,,,,,8.0,1.9161193000618368,,,,,,,,,,,,,,,,,,,,47,A,2024-01-09_11h26.06.647,gca_avoidance_task,2022.2.4,143.9333535040401,
,,,,,,,,,15,0,15,0,,,,,,,,,,,,,,,,,,,,,,,,,,,,,,6.0,2.2701187001075596,,,,,,,,,,,,,,,,,,,,47,A,2024-01-09_11h26.06.647,gca_avoidance_task,2022.2.4,143.9333535040401,
,,,,,,,,,16,0,16,0,,,,,,,,,,,,,,,,,,,,,,,,,,,,,,3.0,3.0887724000494927,,,,,,,,,,,,,,,,,,,,47,A,2024-01-09_11h26.06.647,gca_avoidance_task,2022.2.4,143.9333535040401,
,,,,,,,,,17,0,17,0,,,,,,,,,,,,,,,,,,,,,,,,,,,,,,3.0,3.0614773998968303,,,,,,,,,,,,,,,,,,,,47,A,2024-01-09_11h26.06.647,gca_avoidance_task,2022.2.4,143.9333535040401,
,,,,,,,,,18,0,18,0,,,,,,,,,,,,,,,,,,,,,,,,,,,,,,4.0,1.5418922998942435,,,,,,,,,,,,,,,,,,,,47,A,2024-01-09_11h26.06.647,gca_avoidance_task,2022.2.4,143.9333535040401,
,,,,,,,,,19,0,19,0,,,,,,,,,,,,,,,,,,,,,,,,,,,,,,5.0,0.8955498998984694,,,,,,,,,,,,,,,,,,,,47,A,2024-01-09_11h26.06.647,gca_avoidance_task,2022.2.4,143.9333535040401,
,,,,,,,,,20,0,20,0,,,,,,,,,,,,,,,,,,,,,,,,,,,,,,7.0,1.3969698001164943,,,,,,,,,,,,,,,,,,,,47,A,2024-01-09_11h26.06.647,gca_avoidance_task,2022.2.4,143.9333535040401,
,,,,,,,,,21,0,21,0,,,,,,,,,,,,,,,,,,,,,,,,,,,,,,8.0,1.847055200021714,,,,,,,,,,,,,,,,,,,,47,A,2024-01-09_11h26.06.647,gca_avoidance_task,2022.2.4,143.9333535040401,
,,,,,,,,,22,0,22,0,,,,,,,,,,,,,,,,,,,,,,,,,,,,,,4.0,1.8904214999638498,,,,,,,,,,,,,,,,,,,,47,A,2024-01-09_11h26.06.647,gca_avoidance_task,2022.2.4,143.9333535040401,
,,,,,,,,,23,0,23,0,,,,,,,,,,,,,,,,,,,,,,,,,,,,,,5.0,1.9594169999472797,,,,,,,,,,,,,,,,,,,,47,A,2024-01-09_11h26.06.647,gca_avoidance_task,2022.2.4,143.9333535040401,
,,,,,,,,,24,0,24,0,,,,,,,,,,,,,,,,,,,,,,,,,,,,,,6.0,3.1940735999960452,,,,,,,,,,,,,,,,,,,,47,A,2024-01-09_11h26.06.647,gca_avoidance_task,2022.2.4,143.9333535040401,
,,,,,,,,,25,0,25,0,,,,,,,,,,,,,,,,,,,,,,,,,,,,,,8.0,3.8773348999675363,,,,,,,,,,,,,,,,,,,,47,A,2024-01-09_11h26.06.647,gca_avoidance_task,2022.2.4,143.9333535040401,
,,,,,,,,,26,0,26,0,,,,,,,,,,,,,,,,,,,,,,,,,,,,,,7.0,2.3931795998942107,,,,,,,,,,,,,,,,,,,,47,A,2024-01-09_11h26.06.647,gca_avoidance_task,2022.2.4,143.9333535040401,
,,,,,,,,,27,0,27,0,,,,,,,,,,,,,,,,,,,,,,,,,,,,,,6.0,4.237433500122279,,,,,,,,,,,,,,,,,,,,47,A,2024-01-09_11h26.06.647,gca_avoidance_task,2022.2.4,143.9333535040401,
,,,,,,,,,28,0,28,0,,,,,,,,,,,,,,,,,,,,,,,,,,,,,,6.0,3.7020151999313384,,,,,,,,,,,,,,,,,,,,47,A,2024-01-09_11h26.06.647,gca_avoidance_task,2022.2.4,143.9333535040401,
positions.xlsx,stimuli.xlsx,stimuli/Social1.png,stimuli/Social2.png,stimuli/Nonsocial1.png,stimuli/Nonsocial2.png,cs_minus_s,,,,,,,0,0,0,0,0,0,0,2,,,,,,,,,,,,,,,,,,,,,,,,1197.3300516000018,1271.2020924000535,8.0,25.167226399993524,,,,,,,,,,,,,,,,47,A,2024-01-09_11h26.06.647,gca_avoidance_task,2022.2.4,143.9333535040401,
positions.xlsx,stimuli.xlsx,stimuli/Social1.png,stimuli/Social2.png,stimuli/Nonsocial1.png,stimuli/Nonsocial2.png,cs_minus_ns,,,,,,,0,0,0,0,0,1,1,3,,,,,,,,,,,,,,,,,,,,,,,,,1297.1246883000713,4.0,9.908518200041726,,,,,,,,,,,,,,,,47,A,2024-01-09_11h26.06.647,gca_avoidance_task,2022.2.4,143.9333535040401,
positions.xlsx,stimuli.xlsx,stimuli/Social1.png,stimuli/Social2.png,stimuli/Nonsocial1.png,stimuli/Nonsocial2.png,cs_plus_s,,,,,,,0,0,0,0,0,2,2,0,,,,,,,,,,,,,,,,,,,,,,,,,1308.3395834001713,9.0,4.326373799936846,,,,,,,,,,,,,,,,47,A,2024-01-09_11h26.06.647,gca_avoidance_task,2022.2.4,143.9333535040401,
positions.xlsx,stimuli.xlsx,stimuli/Social1.png,stimuli/Social2.png,stimuli/Nonsocial1.png,stimuli/Nonsocial2.png,cs_plus_ns,,,,,,,0,0,0,0,0,3,3,1,,,,,,,,,,,,,,,,,,,,,,,,,1314.2767676999792,4.0,6.236966100055724,,,,,,,,,,,,,,,,47,A,2024-01-09_11h26.06.647,gca_avoidance_task,2022.2.4,143.9333535040401,
positions.xlsx,stimuli.xlsx,stimuli/Social1.png,stimuli/Social2.png,stimuli/Nonsocial1.png,stimuli/Nonsocial2.png,,"(-0.7, -0.5)",cs_plus_ns,,,,,0,0,0,0,,,,,0,0,0,9,,,,,,,,,,,,,,,,,,,,,,,,1321.679250500165,1351.4419863000512,0,shock,1,0.31271050008945167,0.31271420000121,1351.7544871000573,,,,,,,,47,A,2024-01-09_11h26.06.647,gca_avoidance_task,2022.2.4,143.9333535040401,
positions.xlsx,stimuli.xlsx,stimuli/Social1.png,stimuli/Social2.png,stimuli/Nonsocial1.png,stimuli/Nonsocial2.png,,"(0.7, -0.5)",cs_minus_s,,,,,0,0,0,0,,,,,0,1,1,7,,,,,,,,,,,,,,,,,,,,,,,,,1361.7610343000852,5,reward,1,0.47248120000585914,0.47248489991761744,1362.2402427999768,,,,,,,,47,A,2024-01-09_11h26.06.647,gca_avoidance_task,2022.2.4,143.9333535040401,
positions.xlsx,stimuli.xlsx,stimuli/Social1.png,stimuli/Social2.png,stimuli/Nonsocial1.png,stimuli/Nonsocial2.png,,"(-0.7, 0.5)",cs_minus_ns,,,,,0,0,0,0,,,,,0,2,2,12,,,,,,,,,,,,,,,,,,,,,,,,,1371.1287561999634,10,reward,1,0.47252439986914396,0.47252809978090227,1371.6078910001088,,,,,,,,47,A,2024-01-09_11h26.06.647,gca_avoidance_task,2022.2.4,143.9333535040401,
positions.xlsx,stimuli.xlsx,stimuli/Social1.png,stimuli/Social2.png,stimuli/Nonsocial1.png,stimuli/Nonsocial2.png,,"(-0.7, 0.5)",cs_plus_ns,,,,,0,0,0,0,,,,,0,3,3,8,,,,,,,,,,,,,,,,,,,,,,,,,1381.093604600057,10,shock,1,0.5000845000613481,0.5000881000887603,1381.600512900157,,,,,,,,47,A,2024-01-09_11h26.06.647,gca_avoidance_task,2022.2.4,143.9333535040401,
positions.xlsx,stimuli.xlsx,stimuli/Social1.png,stimuli/Social2.png,stimuli/Nonsocial1.png,stimuli/Nonsocial2.png,,"(0.7, -0.5)",cs_minus_ns,,,,,0,0,0,0,,,,,0,4,4,15,,,,,,,,,,,,,,,,,,,,,,,,,1391.3709792001173,15,reward,1,0.6115480000153184,0.6115518999285996,1391.9890007001814,,,,,,,,47,A,2024-01-09_11h26.06.647,gca_avoidance_task,2022.2.4,143.9333535040401,
positions.xlsx,stimuli.xlsx,stimuli/Social1.png,stimuli/Social2.png,stimuli/Nonsocial1.png,stimuli/Nonsocial2.png,,"(0.7, 0.5)",cs_minus_ns,,,,,0,0,0,0,,,,,0,5,5,14,,,,,,,,,,,,,,,,,,,,,,,,,1401.419196400093,20,reward,1,0.5766066000796854,0.5766102001070976,1402.0025202999823,,,,,,,,47,A,2024-01-09_11h26.06.647,gca_avoidance_task,2022.2.4,143.9333535040401,
positions.xlsx,stimuli.xlsx,stimuli/Social1.png,stimuli/Social2.png,stimuli/Nonsocial1.png,stimuli/Nonsocial2.png,,"(0.7, 0.5)",cs_plus_s,,,,,0,0,0,0,,,,,0,6,6,2,,,,,,,,,,,,,,,,,,,,,,,,,1411.2451828001067,20,shock,1,0.3820676999166608,0.38207129994407296,1411.6340586000588,,,,,,,,47,A,2024-01-09_11h26.06.647,gca_avoidance_task,2022.2.4,143.9333535040401,
positions.xlsx,stimuli.xlsx,stimuli/Social1.png,stimuli/Social2.png,stimuli/Nonsocial1.png,stimuli/Nonsocial2.png,,"(0.7, 0.5)",cs_plus_ns,,,,,0,0,0,0,,,,,0,7,7,10,,,,,,,,,,,,,,,,,,,,,,,,,1420.3837197001558,20,none,0,,,1425.3904683000874,,,,,,,,47,A,2024-01-09_11h26.06.647,gca_avoidance_task,2022.2.4,143.9333535040401,
positions.xlsx,stimuli.xlsx,stimuli/Social1.png,stimuli/Social2.png,stimuli/Nonsocial1.png,stimuli/Nonsocial2.png,,"(-0.7, 0.5)",cs_plus_s,,,,,0,0,0,0,,,,,0,8,8,0,,,,,,,,,,,,,,,,,,,,,,,,,1434.5636925001163,20,shock,1,0.47928950004279613,0.4792933000717312,1435.0428981001023,,,,,,,,47,A,2024-01-09_11h26.06.647,gca_avoidance_task,2022.2.4,143.9333535040401,
positions.xlsx,stimuli.xlsx,stimuli/Social1.png,stimuli/Social2.png,stimuli/Nonsocial1.png,stimuli/Nonsocial2.png,,"(-0.7, 0.5)",cs_minus_s,,,,,0,0,0,0,,,,,0,9,9,4,,,,,,,,,,,,,,,,,,,,,,,,,1444.5633170001674,25,reward,1,0.4582878998480737,0.45829159999266267,1445.028595900163,,,,,,,,47,A,2024-01-09_11h26.06.647,gca_avoidance_task,2022.2.4,143.9333535040401,
positions.xlsx,stimuli.xlsx,stimuli/Social1.png,stimuli/Social2.png,stimuli/Nonsocial1.png,stimuli/Nonsocial2.png,,"(-0.7, -0.5)",cs_plus_s,,,,,0,0,0,0,,,,,0,10,10,1,,,,,,,,,,,,,,,,,,,,,,,,,1455.2781887000892,25,none,0,,,1460.2919028000906,,,,,,,,47,A,2024-01-09_11h26.06.647,gca_avoidance_task,2022.2.4,143.9333535040401,
positions.xlsx,stimuli.xlsx,stimuli/Social1.png,stimuli/Social2.png,stimuli/Nonsocial1.png,stimuli/Nonsocial2.png,,"(0.7, 0.5)",cs_minus_s,,,,,0,0,0,0,,,,,0,11,11,6,,,,,,,,,,,,,,,,,,,,,,,,,1469.9304568001535,30,reward,1,0.6320286998525262,0.6320323999971151,1470.5692468001507,,,,,,,,47,A,2024-01-09_11h26.06.647,gca_avoidance_task,2022.2.4,143.9333535040401,
positions.xlsx,stimuli.xlsx,stimuli/Social1.png,stimuli/Social2.png,stimuli/Nonsocial1.png,stimuli/Nonsocial2.png,,"(-0.7, -0.5)",cs_minus_ns,,,,,0,0,0,0,,,,,0,12,12,13,,,,,,,,,,,,,,,,,,,,,,,,,1479.3814063000027,35,reward,1,0.6945925999898463,0.6945962999016047,1480.0827644001693,,,,,,,,47,A,2024-01-09_11h26.06.647,gca_avoidance_task,2022.2.4,143.9333535040401,
positions.xlsx,stimuli.xlsx,stimuli/Social1.png,stimuli/Social2.png,stimuli/Nonsocial1.png,stimuli/Nonsocial2.png,,"(-0.7, -0.5)",cs_minus_s,,,,,0,0,0,0,,,,,0,13,13,5,,,,,,,,,,,,,,,,,,,,,,,,,1489.0060221999884,40,reward,1,0.7362183998338878,0.7362221998628229,1489.7490473000798,,,,,,,,47,A,2024-01-09_11h26.06.647,gca_avoidance_task,2022.2.4,143.9333535040401,
positions.xlsx,stimuli.xlsx,stimuli/Social1.png,stimuli/Social2.png,stimuli/Nonsocial1.png,stimuli/Nonsocial2.png,,"(0.7, -0.5)",cs_plus_ns,,,,,0,0,0,0,,,,,0,14,14,11,,,,,,,,,,,,,,,,,,,,,,,,,1499.5195041000843,40,none,0,,,1504.5331933000125,,,,,,,,47,A,2024-01-09_11h26.06.647,gca_avoidance_task,2022.2.4,143.9333535040401,
positions.xlsx,stimuli.xlsx,stimuli/Social1.png,stimuli/Social2.png,stimuli/Nonsocial1.png,stimuli/Nonsocial2.png,,"(0.7, -0.5)",cs_plus_s,,,,,0,0,0,0,,,,,0,15,15,3,,,,,,,,,,,,,,,,,,,,,,,,,1513.8939668000676,40,none,0,,,1518.9007157001179,,,,,,,,47,A,2024-01-09_11h26.06.647,gca_avoidance_task,2022.2.4,143.9333535040401,
positions.xlsx,stimuli.xlsx,stimuli/Social1.png,stimuli/Social2.png,stimuli/Nonsocial1.png,stimuli/Nonsocial2.png,,"(-0.7, -0.5)",cs_plus_ns,,,,,0,0,0,0,,,,,1,0,16,9,,,,,,,,,,,,,,,,,,,,,,,,,1528.45585820009,40,shock,1,1.4583992999978364,1.4584031000267714,1529.9211069000885,,,,,,,,47,A,2024-01-09_11h26.06.647,gca_avoidance_task,2022.2.4,143.9333535040401,
positions.xlsx,stimuli.xlsx,stimuli/Social1.png,stimuli/Social2.png,stimuli/Nonsocial1.png,stimuli/Nonsocial2.png,,"(-0.7, 0.5)",cs_plus_ns,,,,,0,0,0,0,,,,,1,1,17,8,,,,,,,,,,,,,,,,,,,,,,,,,1539.3234828000423,40,none,0,,,1544.3302394000348,,,,,,,,47,A,2024-01-09_11h26.06.647,gca_avoidance_task,2022.2.4,143.9333535040401,
positions.xlsx,stimuli.xlsx,stimuli/Social1.png,stimuli/Social2.png,stimuli/Nonsocial1.png,stimuli/Nonsocial2.png,,"(0.7, -0.5)",cs_plus_ns,,,,,0,0,0,0,,,,,1,2,18,11,,,,,,,,,,,,,,,,,,,,,,,,,1553.4688075000886,40,none,0,,,1558.4755449001677,,,,,,,,47,A,2024-01-09_11h26.06.647,gca_avoidance_task,2022.2.4,143.9333535040401,
positions.xlsx,stimuli.xlsx,stimuli/Social1.png,stimuli/Social2.png,stimuli/Nonsocial1.png,stimuli/Nonsocial2.png,,"(0.7, 0.5)",cs_minus_s,,,,,0,0,0,0,,,,,1,3,19,6,,,,,,,,,,,,,,,,,,,,,,,,,1568.1973782000132,45,reward,1,0.5213505001738667,0.5213671000674367,1568.7251085001044,,,,,,,,47,A,2024-01-09_11h26.06.647,gca_avoidance_task,2022.2.4,143.9333535040401,
positions.xlsx,stimuli.xlsx,stimuli/Social1.png,stimuli/Social2.png,stimuli/Nonsocial1.png,stimuli/Nonsocial2.png,,"(0.7, -0.5)",cs_minus_s,,,,,0,0,0,0,,,,,1,4,20,7,,,,,,,,,,,,,,,,,,,,,,,,,1577.6067737999838,50,reward,1,0.5418861999642104,0.5419049998745322,1578.1552895000204,,,,,,,,47,A,2024-01-09_11h26.06.647,gca_avoidance_task,2022.2.4,143.9333535040401,
positions.xlsx,stimuli.xlsx,stimuli/Social1.png,stimuli/Social2.png,stimuli/Nonsocial1.png,stimuli/Nonsocial2.png,,"(-0.7, 0.5)",cs_minus_ns,,,,,0,0,0,0,,,,,1,5,21,12,,,,,,,,,,,,,,,,,,,,,,,,,1587.745200900128,55,reward,1,0.6249925999436527,0.6249961999710649,1588.377130100038,,,,,,,,47,A,2024-01-09_11h26.06.647,gca_avoidance_task,2022.2.4,143.9333535040401,
positions.xlsx,stimuli.xlsx,stimuli/Social1.png,stimuli/Social2.png,stimuli/Nonsocial1.png,stimuli/Nonsocial2.png,,"(-0.7, -0.5)",cs_plus_s,,,,,0,0,0,0,,,,,1,6,22,1,,,,,,,,,,,,,,,,,,,,,,,,,1597.7795480000786,55,none,0,,,1602.7862730000634,,,,,,,,47,A,2024-01-09_11h26.06.647,gca_avoidance_task,2022.2.4,143.9333535040401,
positions.xlsx,stimuli.xlsx,stimuli/Social1.png,stimuli/Social2.png,stimuli/Nonsocial1.png,stimuli/Nonsocial2.png,,"(-0.7, 0.5)",cs_plus_s,,,,,0,0,0,0,,,,,1,7,23,0,,,,,,,,,,,,,,,,,,,,,,,,,1612.0775707000867,55,none,0,,,1617.0843283999711,,,,,,,,47,A,2024-01-09_11h26.06.647,gca_avoidance_task,2022.2.4,143.9333535040401,
positions.xlsx,stimuli.xlsx,stimuli/Social1.png,stimuli/Social2.png,stimuli/Nonsocial1.png,stimuli/Nonsocial2.png,,"(0.7, 0.5)",cs_minus_ns,,,,,0,0,0,0,,,,,1,8,24,14,,,,,,,,,,,,,,,,,,,,,,,,,1626.042373900069,60,reward,1,0.5836362999398261,0.5836400000844151,1626.6325821001083,,,,,,,,47,A,2024-01-09_11h26.06.647,gca_avoidance_task,2022.2.4,143.9333535040401,
positions.xlsx,stimuli.xlsx,stimuli/Social1.png,stimuli/Social2.png,stimuli/Nonsocial1.png,stimuli/Nonsocial2.png,,"(-0.7, -0.5)",cs_minus_s,,,,,0,0,0,0,,,,,1,9,25,5,,,,,,,,,,,,,,,,,,,,,,,,,1636.6044536000118,65,reward,1,0.7648845000658184,0.7648891001008451,1637.3751926000696,,,,,,,,47,A,2024-01-09_11h26.06.647,gca_avoidance_task,2022.2.4,143.9333535040401,
positions.xlsx,stimuli.xlsx,stimuli/Social1.png,stimuli/Social2.png,stimuli/Nonsocial1.png,stimuli/Nonsocial2.png,,"(0.7, 0.5)",cs_plus_s,,,,,0,0,0,0,,,,,1,10,26,2,,,,,,,,,,,,,,,,,,,,,,,,,1647.173455200158,65,none,0,,,1652.1802247001324,,,,,,,,47,A,2024-01-09_11h26.06.647,gca_avoidance_task,2022.2.4,143.9333535040401,
positions.xlsx,stimuli.xlsx,stimuli/Social1.png,stimuli/Social2.png,stimuli/Nonsocial1.png,stimuli/Nonsocial2.png,,"(0.7, -0.5)",cs_plus_s,,,,,0,0,0,0,,,,,1,11,27,3,,,,,,,,,,,,,,,,,,,,,,,,,1661.5201091000345,65,none,0,,,1666.5268467001151,,,,,,,,47,A,2024-01-09_11h26.06.647,gca_avoidance_task,2022.2.4,143.9333535040401,
positions.xlsx,stimuli.xlsx,stimuli/Social1.png,stimuli/Social2.png,stimuli/Nonsocial1.png,stimuli/Nonsocial2.png,,"(-0.7, -0.5)",cs_minus_ns,,,,,0,0,0,0,,,,,1,12,28,13,,,,,,,,,,,,,,,,,,,,,,,,,1676.0195200999733,70,reward,1,0.6805881001055241,0.6805918000172824,1676.7070148000494,,,,,,,,47,A,2024-01-09_11h26.06.647,gca_avoidance_task,2022.2.4,143.9333535040401,
positions.xlsx,stimuli.xlsx,stimuli/Social1.png,stimuli/Social2.png,stimuli/Nonsocial1.png,stimuli/Nonsocial2.png,,"(0.7, -0.5)",cs_minus_ns,,,,,0,0,0,0,,,,,1,13,29,15,,,,,,,,,,,,,,,,,,,,,,,,,1686.4357812001836,75,reward,1,0.562594800023362,0.5625982999335974,1687.0052000000142,,,,,,,,47,A,2024-01-09_11h26.06.647,gca_avoidance_task,2022.2.4,143.9333535040401,
positions.xlsx,stimuli.xlsx,stimuli/Social1.png,stimuli/Social2.png,stimuli/Nonsocial1.png,stimuli/Nonsocial2.png,,"(0.7, 0.5)",cs_plus_ns,,,,,0,0,0,0,,,,,1,14,30,10,,,,,,,,,,,,,,,,,,,,,,,,,1695.7548693001736,75,none,0,,,1700.7616099000443,,,,,,,,47,A,2024-01-09_11h26.06.647,gca_avoidance_task,2022.2.4,143.9333535040401,
positions.xlsx,stimuli.xlsx,stimuli/Social1.png,stimuli/Social2.png,stimuli/Nonsocial1.png,stimuli/Nonsocial2.png,,"(-0.7, 0.5)",cs_minus_s,,,,,0,0,0,0,,,,,1,15,31,4,,,,,,,,,,,,,,,,,,,,,,,,,1710.1432366000954,80,reward,1,0.5559130001347512,0.5559165999293327,1710.7057350999676,,,,,,,,47,A,2024-01-09_11h26.06.647,gca_avoidance_task,2022.2.4,143.9333535040401,
positions.xlsx,stimuli.xlsx,stimuli/Social1.png,stimuli/Social2.png,stimuli/Nonsocial1.png,stimuli/Nonsocial2.png,,"(0.7, -0.5)",cs_minus_s,,,,,0,0,0,0,,,,,,,,,0,0,0,7,,,,,,,,,,,,,,,,,,,,,1737.2671257001348,85,reward,1,0.5903513999655843,0.5903552998788655,1737.8643201000523,,,,,,,,47,A,2024-01-09_11h26.06.647,gca_avoidance_task,2022.2.4,143.9333535040401,
positions.xlsx,stimuli.xlsx,stimuli/Social1.png,stimuli/Social2.png,stimuli/Nonsocial1.png,stimuli/Nonsocial2.png,,"(0.7, 0.5)",cs_plus_ns,,,,,0,0,0,0,,,,,,,,,0,1,1,10,,,,,,,,,,,,,,,,,,,,,1747.190373300109,85,shock,1,0.5142278000712395,0.5142314999829978,1747.7112539999653,,,,,,,,47,A,2024-01-09_11h26.06.647,gca_avoidance_task,2022.2.4,143.9333535040401,
positions.xlsx,stimuli.xlsx,stimuli/Social1.png,stimuli/Social2.png,stimuli/Nonsocial1.png,stimuli/Nonsocial2.png,,"(-0.7, 0.5)",cs_plus_s,,,,,0,0,0,0,,,,,,,,,0,2,2,0,,,,,,,,,,,,,,,,,,,,,1757.3288625001442,85,shock,1,0.4583680001087487,0.4583719000220299,1757.7941420001443,,,,,,,,47,A,2024-01-09_11h26.06.647,gca_avoidance_task,2022.2.4,143.9333535040401,
positions.xlsx,stimuli.xlsx,stimuli/Social1.png,stimuli/Social2.png,stimuli/Nonsocial1.png,stimuli/Nonsocial2.png,,"(0.7, 0.5)",cs_minus_s,,,,,0,0,0,0,,,,,,,,,0,3,3,6,,,,,,,,,,,,,,,,,,,,,1767.1687622000463,90,reward,1,0.771376800024882,0.7713804999366403,1767.9464982000645,,,,,,,,47,A,2024-01-09_11h26.06.647,gca_avoidance_task,2022.2.4,143.9333535040401,
positions.xlsx,stimuli.xlsx,stimuli/Social1.png,stimuli/Social2.png,stimuli/Nonsocial1.png,stimuli/Nonsocial2.png,,"(-0.7, 0.5)",cs_minus_ns,,,,,0,0,0,0,,,,,,,,,0,4,4,12,,,,,,,,,,,,,,,,,,,,,1777.300311600091,95,reward,1,0.5487240999937057,0.5487273000180721,1777.8558706999756,,,,,,,,47,A,2024-01-09_11h26.06.647,gca_avoidance_task,2022.2.4,143.9333535040401,
positions.xlsx,stimuli.xlsx,stimuli/Social1.png,stimuli/Social2.png,stimuli/Nonsocial1.png,stimuli/Nonsocial2.png,,"(0.7, 0.5)",cs_minus_ns,,,,,0,0,0,0,,,,,,,,,0,5,5,14,,,,,,,,,,,,,,,,,,,,,1787.4110505001154,100,reward,1,0.5491086000110954,0.5491125001572073,1787.96657639998,,,,,,,,47,A,2024-01-09_11h26.06.647,gca_avoidance_task,2022.2.4,143.9333535040401,
positions.xlsx,stimuli.xlsx,stimuli/Social1.png,stimuli/Social2.png,stimuli/Nonsocial1.png,stimuli/Nonsocial2.png,,"(0.7, -0.5)",cs_plus_s,,,,,0,0,0,0,,,,,,,,,0,6,6,3,,,,,,,,,,,,,,,,,,,,,1797.76479070005,100,none,0,,,1802.7715376999695,,,,,,,,47,A,2024-01-09_11h26.06.647,gca_avoidance_task,2022.2.4,143.9333535040401,
positions.xlsx,stimuli.xlsx,stimuli/Social1.png,stimuli/Social2.png,stimuli/Nonsocial1.png,stimuli/Nonsocial2.png,,"(-0.7, -0.5)",cs_plus_ns,,,,,0,0,0,0,,,,,,,,,0,7,7,9,,,,,,,,,,,,,,,,,,,,,1812.7503426000476,100,none,0,,,1817.757102600066,,,,,,,,47,A,2024-01-09_11h26.06.647,gca_avoidance_task,2022.2.4,143.9333535040401,
positions.xlsx,stimuli.xlsx,stimuli/Social1.png,stimuli/Social2.png,stimuli/Nonsocial1.png,stimuli/Nonsocial2.png,,"(-0.7, 0.5)",cs_plus_ns,,,,,0,0,0,0,,,,,,,,,0,8,8,8,,,,,,,,,,,,,,,,,,,,,1826.7844740999863,100,none,0,,,1831.7912092001643,,,,,,,,47,A,2024-01-09_11h26.06.647,gca_avoidance_task,2022.2.4,143.9333535040401,
positions.xlsx,stimuli.xlsx,stimuli/Social1.png,stimuli/Social2.png,stimuli/Nonsocial1.png,stimuli/Nonsocial2.png,,"(0.7, -0.5)",cs_plus_ns,,,,,0,0,0,0,,,,,,,,,0,9,9,11,,,,,,,,,,,,,,,,,,,,,1841.401985900011,100,none,0,,,1846.4087350000627,,,,,,,,47,A,2024-01-09_11h26.06.647,gca_avoidance_task,2022.2.4,143.9333535040401,
positions.xlsx,stimuli.xlsx,stimuli/Social1.png,stimuli/Social2.png,stimuli/Nonsocial1.png,stimuli/Nonsocial2.png,,"(0.7, -0.5)",cs_minus_ns,,,,,0,0,0,0,,,,,,,,,0,10,10,15,,,,,,,,,,,,,,,,,,,,,1856.4500023999717,105,reward,1,0.5488591000903398,0.548862700117752,1857.0055550001562,,,,,,,,47,A,2024-01-09_11h26.06.647,gca_avoidance_task,2022.2.4,143.9333535040401,
positions.xlsx,stimuli.xlsx,stimuli/Social1.png,stimuli/Social2.png,stimuli/Nonsocial1.png,stimuli/Nonsocial2.png,,"(-0.7, -0.5)",cs_plus_s,,,,,0,0,0,0,,,,,,,,,0,11,11,1,,,,,,,,,,,,,,,,,,,,,1866.3246067001019,105,shock,1,0.29890950000844896,0.29891319992020726,1866.6302076999564,,,,,,,,47,A,2024-01-09_11h26.06.647,gca_avoidance_task,2022.2.4,143.9333535040401,
positions.xlsx,stimuli.xlsx,stimuli/Social1.png,stimuli/Social2.png,stimuli/Nonsocial1.png,stimuli/Nonsocial2.png,,"(-0.7, -0.5)",cs_minus_s,,,,,0,0,0,0,,,,,,,,,0,12,12,5,,,,,,,,,,,,,,,,,,,,,1875.5881648999639,110,reward,1,0.555845299968496,0.5630180998705328,1876.157579400111,,,,,,,,47,A,2024-01-09_11h26.06.647,gca_avoidance_task,2022.2.4,143.9333535040401,
positions.xlsx,stimuli.xlsx,stimuli/Social1.png,stimuli/Social2.png,stimuli/Nonsocial1.png,stimuli/Nonsocial2.png,,"(0.7, 0.5)",cs_plus_s,,,,,0,0,0,0,,,,,,,,,0,13,13,2,,,,,,,,,,,,,,,,,,,,,1885.705825699959,110,none,0,,,1890.7125653000548,,,,,,,,47,A,2024-01-09_11h26.06.647,gca_avoidance_task,2022.2.4,143.9333535040401,
positions.xlsx,stimuli.xlsx,stimuli/Social1.png,stimuli/Social2.png,stimuli/Nonsocial1.png,stimuli/Nonsocial2.png,,"(-0.7, 0.5)",cs_minus_s,,,,,0,0,0,0,,,,,,,,,0,14,14,4,,,,,,,,,,,,,,,,,,,,,1900.219120600028,115,reward,1,0.5765427998267114,0.5765462999697775,1900.8024281000253,,,,,,,,47,A,2024-01-09_11h26.06.647,gca_avoidance_task,2022.2.4,143.9333535040401,
positions.xlsx,stimuli.xlsx,stimuli/Social1.png,stimuli/Social2.png,stimuli/Nonsocial1.png,stimuli/Nonsocial2.png,,"(-0.7, -0.5)",cs_minus_ns,,,,,0,0,0,0,,,,,,,,,0,15,15,13,,,,,,,,,,,,,,,,,,,,,1910.6700804999564,120,reward,1,0.5836449000053108,0.5836487000342458,1911.2603817000054,,,,,,,,47,A,2024-01-09_11h26.06.647,gca_avoidance_task,2022.2.4,143.9333535040401,
positions.xlsx,stimuli.xlsx,stimuli/Social1.png,stimuli/Social2.png,stimuli/Nonsocial1.png,stimuli/Nonsocial2.png,,"(0.7, -0.5)",cs_minus_s,,,,,0,0,0,0,,,,,,,,,1,0,16,7,,,,,,,,,,,,,,,,,,,,,1920.4127925001085,125,reward,1,0.39613029989413917,0.4034750999417156,1920.8224888001569,,,,,,,,47,A,2024-01-09_11h26.06.647,gca_avoidance_task,2022.2.4,143.9333535040401,
positions.xlsx,stimuli.xlsx,stimuli/Social1.png,stimuli/Social2.png,stimuli/Nonsocial1.png,stimuli/Nonsocial2.png,,"(-0.7, 0.5)",cs_plus_s,,,,,0,0,0,0,,,,,,,,,1,1,17,0,,,,,,,,,,,,,,,,,,,,,1930.5512641000096,125,none,0,,,1935.5580931000877,,,,,,,,47,A,2024-01-09_11h26.06.647,gca_avoidance_task,2022.2.4,143.9333535040401,
positions.xlsx,stimuli.xlsx,stimuli/Social1.png,stimuli/Social2.png,stimuli/Nonsocial1.png,stimuli/Nonsocial2.png,,"(0.7, 0.5)",cs_plus_s,,,,,0,0,0,0,,,,,,,,,1,2,18,2,,,,,,,,,,,,,,,,,,,,,1945.6548560000956,125,none,0,,,1950.6616140000988,,,,,,,,47,A,2024-01-09_11h26.06.647,gca_avoidance_task,2022.2.4,143.9333535040401,
positions.xlsx,stimuli.xlsx,stimuli/Social1.png,stimuli/Social2.png,stimuli/Nonsocial1.png,stimuli/Nonsocial2.png,,"(-0.7, -0.5)",cs_minus_s,,,,,0,0,0,0,,,,,,,,,1,3,19,5,,,,,,,,,,,,,,,,,,,,,1960.3556735999882,130,reward,1,0.5835956002119929,0.5835994000080973,1960.9459347999655,,,,,,,,47,A,2024-01-09_11h26.06.647,gca_avoidance_task,2022.2.4,143.9333535040401,
positions.xlsx,stimuli.xlsx,stimuli/Social1.png,stimuli/Social2.png,stimuli/Nonsocial1.png,stimuli/Nonsocial2.png,,"(0.7, 0.5)",cs_minus_s,,,,,0,0,0,0,,,,,,,,,1,4,20,6,,,,,,,,,,,,,,,,,,,,,1970.237250200007,135,reward,1,0.46525629982352257,0.4652599999681115,1970.7094004000537,,,,,,,,47,A,2024-01-09_11h26.06.647,gca_avoidance_task,2022.2.4,143.9333535040401,
positions.xlsx,stimuli.xlsx,stimuli/Social1.png,stimuli/Social2.png,stimuli/Nonsocial1.png,stimuli/Nonsocial2.png,,"(0.7, -0.5)",cs_minus_ns,,,,,0,0,0,0,,,,,,,,,1,5,21,15,,,,,,,,,,,,,,,,,,,,,1980.7854159001727,140,reward,1,0.5626489999704063,0.5626527999993414,1981.3548233001493,,,,,,,,47,A,2024-01-09_11h26.06.647,gca_avoidance_task,2022.2.4,143.9333535040401,
positions.xlsx,stimuli.xlsx,stimuli/Social1.png,stimuli/Social2.png,stimuli/Nonsocial1.png,stimuli/Nonsocial2.png,,"(-0.7, -0.5)",cs_minus_ns,,,,,0,0,0,0,,,,,,,,,1,6,22,13,,,,,,,,,,,,,,,,,,,,,1991.36833019997,145,reward,1,0.38197409990243614,0.3819778999313712,1991.757212900091,,,,,,,,47,A,2024-01-09_11h26.06.647,gca_avoidance_task,2022.2.4,143.9333535040401,
positions.xlsx,stimuli.xlsx,stimuli/Social1.png,stimuli/Social2.png,stimuli/Nonsocial1.png,stimuli/Nonsocial2.png,,"(0.7, -0.5)",cs_plus_s,,,,,0,0,0,0,,,,,,,,,1,7,23,3,,,,,,,,,,,,,,,,,,,,,2001.7290531999897,145,none,0,,,2006.7358160000294,,,,,,,,47,A,2024-01-09_11h26.06.647,gca_avoidance_task,2022.2.4,143.9333535040401,
positions.xlsx,stimuli.xlsx,stimuli/Social1.png,stimuli/Social2.png,stimuli/Nonsocial1.png,stimuli/Nonsocial2.png,,"(-0.7, 0.5)",cs_minus_ns,,,,,0,0,0,0,,,,,,,,,1,8,24,12,,,,,,,,,,,,,,,,,,,,,2015.9437850001268,150,reward,1,0.6250238001812249,0.6250277000945061,2016.5756942001171,,,,,,,,47,A,2024-01-09_11h26.06.647,gca_avoidance_task,2022.2.4,143.9333535040401,
positions.xlsx,stimuli.xlsx,stimuli/Social1.png,stimuli/Social2.png,stimuli/Nonsocial1.png,stimuli/Nonsocial2.png,,"(0.7, 0.5)",cs_minus_ns,,,,,0,0,0,0,,,,,,,,,1,9,25,14,,,,,,,,,,,,,,,,,,,,,2026.7072016999591,155,reward,1,0.5560473999939859,0.5560510000213981,2027.2696936000139,,,,,,,,47,A,2024-01-09_11h26.06.647,gca_avoidance_task,2022.2.4,143.9333535040401,
positions.xlsx,stimuli.xlsx,stimuli/Social1.png,stimuli/Social2.png,stimuli/Nonsocial1.png,stimuli/Nonsocial2.png,,"(-0.7, 0.5)",cs_plus_ns,,,,,0,0,0,0,,,,,,,,,1,10,26,8,,,,,,,,,,,,,,,,,,,,,2036.706839099992,155,none,0,,,2041.7205807000864,,,,,,,,47,A,2024-01-09_11h26.06.647,gca_avoidance_task,2022.2.4,143.9333535040401,
positions.xlsx,stimuli.xlsx,stimuli/Social1.png,stimuli/Social2.png,stimuli/Nonsocial1.png,stimuli/Nonsocial2.png,,"(-0.7, 0.5)",cs_minus_s,,,,,0,0,0,0,,,,,,,,,1,11,27,4,,,,,,,,,,,,,,,,,,,,,2050.984036799986,160,reward,1,0.583610099973157,0.5836137998849154,2051.574333100114,,,,,,,,47,A,2024-01-09_11h26.06.647,gca_avoidance_task,2022.2.4,143.9333535040401,
positions.xlsx,stimuli.xlsx,stimuli/Social1.png,stimuli/Social2.png,stimuli/Nonsocial1.png,stimuli/Nonsocial2.png,,"(0.7, -0.5)",cs_plus_ns,,,,,0,0,0,0,,,,,,,,,1,12,28,11,,,,,,,,,,,,,,,,,,,,,2060.317063300172,160,none,0,,,2065.323838900076,,,,,,,,47,A,2024-01-09_11h26.06.647,gca_avoidance_task,2022.2.4,143.9333535040401,
positions.xlsx,stimuli.xlsx,stimuli/Social1.png,stimuli/Social2.png,stimuli/Nonsocial1.png,stimuli/Nonsocial2.png,,"(-0.7, -0.5)",cs_plus_ns,,,,,0,0,0,0,,,,,,,,,1,13,29,9,,,,,,,,,,,,,,,,,,,,,2074.941446900135,160,none,0,,,2079.9481871000025,,,,,,,,47,A,2024-01-09_11h26.06.647,gca_avoidance_task,2022.2.4,143.9333535040401,
positions.xlsx,stimuli.xlsx,stimuli/Social1.png,stimuli/Social2.png,stimuli/Nonsocial1.png,stimuli/Nonsocial2.png,,"(0.7, 0.5)",cs_plus_ns,,,,,0,0,0,0,,,,,,,,,1,14,30,10,,,,,,,,,,,,,,,,,,,,,2089.5172832000535,160,none,0,,,2094.524041700177,,,,,,,,47,A,2024-01-09_11h26.06.647,gca_avoidance_task,2022.2.4,143.9333535040401,
positions.xlsx,stimuli.xlsx,stimuli/Social1.png,stimuli/Social2.png,stimuli/Nonsocial1.png,stimuli/Nonsocial2.png,,"(-0.7, -0.5)",cs_plus_s,,,,,0,0,0,0,,,,,,,,,1,15,31,1,,,,,,,,,,,,,,,,,,,,,2104.9750173001084,160,none,0,,,2109.981826600153,,,,,,,,47,A,2024-01-09_11h26.06.647,gca_avoidance_task,2022.2.4,143.9333535040401,
positions.xlsx,stimuli.xlsx,stimuli/Social1.png,stimuli/Social2.png,stimuli/Nonsocial1.png,stimuli/Nonsocial2.png,,"(0.7, 0.5)",cs_minus_ns,,,,,0,0,0,0,,,,,,,,,2,0,32,14,,,,,,,,,,,,,,,,,,,,,2119.745275299996,165,reward,1,0.5970527001190931,0.5970565001480281,2120.349491500063,,,,,,,,47,A,2024-01-09_11h26.06.647,gca_avoidance_task,2022.2.4,143.9333535040401,
positions.xlsx,stimuli.xlsx,stimuli/Social1.png,stimuli/Social2.png,stimuli/Nonsocial1.png,stimuli/Nonsocial2.png,,"(-0.7, -0.5)",cs_plus_s,,,,,0,0,0,0,,,,,,,,,2,1,33,1,,,,,,,,,,,,,,,,,,,,,2129.8629408001434,165,none,0,,,2134.869705399964,,,,,,,,47,A,2024-01-09_11h26.06.647,gca_avoidance_task,2022.2.4,143.9333535040401,
positions.xlsx,stimuli.xlsx,stimuli/Social1.png,stimuli/Social2.png,stimuli/Nonsocial1.png,stimuli/Nonsocial2.png,,"(0.7, 0.5)",cs_minus_s,,,,,0,0,0,0,,,,,,,,,2,2,34,6,,,,,,,,,,,,,,,,,,,,,2144.8206807000097,170,reward,1,0.46557670016773045,0.465580299962312,2145.2929309001192,,,,,,,,47,A,2024-01-09_11h26.06.647,gca_avoidance_task,2022.2.4,143.9333535040401,
positions.xlsx,stimuli.xlsx,stimuli/Social1.png,stimuli/Social2.png,stimuli/Nonsocial1.png,stimuli/Nonsocial2.png,,"(-0.7, -0.5)",cs_plus_ns,,,,,0,0,0,0,,,,,,,,,2,3,35,9,,,,,,,,,,,,,,,,,,,,,2154.2855999001767,170,none,0,,,2159.2993439000566,,,,,,,,47,A,2024-01-09_11h26.06.647,gca_avoidance_task,2022.2.4,143.9333535040401,
positions.xlsx,stimuli.xlsx,stimuli/Social1.png,stimuli/Social2.png,stimuli/Nonsocial1.png,stimuli/Nonsocial2.png,,"(0.7, -0.5)",cs_plus_s,,,,,0,0,0,0,,,,,,,,,2,4,36,3,,,,,,,,,,,,,,,,,,,,,2169.5697543001734,170,none,0,,,2174.5764870001003,,,,,,,,47,A,2024-01-09_11h26.06.647,gca_avoidance_task,2022.2.4,143.9333535040401,
positions.xlsx,stimuli.xlsx,stimuli/Social1.png,stimuli/Social2.png,stimuli/Nonsocial1.png,stimuli/Nonsocial2.png,,"(0.7, -0.5)",cs_minus_ns,,,,,0,0,0,0,,,,,,,,,2,5,37,15,,,,,,,,,,,,,,,,,,,,,2184.103889600141,175,reward,1,0.5766231000889093,0.5766268000006676,2184.68717020005,,,,,,,,47,A,2024-01-09_11h26.06.647,gca_avoidance_task,2022.2.4,143.9333535040401,
positions.xlsx,stimuli.xlsx,stimuli/Social1.png,stimuli/Social2.png,stimuli/Nonsocial1.png,stimuli/Nonsocial2.png,,"(-0.7, -0.5)",cs_minus_ns,,,,,0,0,0,0,,,,,,,,,2,6,38,13,,,,,,,,,,,,,,,,,,,,,2194.3326499001123,180,reward,1,0.6113764999900013,0.6113799999002367,2194.950686100172,,,,,,,,47,A,2024-01-09_11h26.06.647,gca_avoidance_task,2022.2.4,143.9333535040401,
positions.xlsx,stimuli.xlsx,stimuli/Social1.png,stimuli/Social2.png,stimuli/Nonsocial1.png,stimuli/Nonsocial2.png,,"(-0.7, 0.5)",cs_minus_s,,,,,0,0,0,0,,,,,,,,,2,7,39,4,,,,,,,,,,,,,,,,,,,,,2204.6447702001315,185,reward,1,0.34759890008717775,0.34760230011306703,2204.9989009001292,,,,,,,,47,A,2024-01-09_11h26.06.647,gca_avoidance_task,2022.2.4,143.9333535040401,
positions.xlsx,stimuli.xlsx,stimuli/Social1.png,stimuli/Social2.png,stimuli/Nonsocial1.png,stimuli/Nonsocial2.png,,"(-0.7, 0.5)",cs_plus_s,,,,,0,0,0,0,,,,,,,,,2,8,40,0,,,,,,,,,,,,,,,,,,,,,2215.054086399963,185,none,0,,,2220.0608227001503,,,,,,,,47,A,2024-01-09_11h26.06.647,gca_avoidance_task,2022.2.4,143.9333535040401,
positions.xlsx,stimuli.xlsx,stimuli/Social1.png,stimuli/Social2.png,stimuli/Nonsocial1.png,stimuli/Nonsocial2.png,,"(-0.7, -0.5)",cs_minus_s,,,,,0,0,0,0,,,,,,,,,2,9,41,5,,,,,,,,,,,,,,,,,,,,,2229.3451849000994,190,reward,1,1.0974196998868138,1.1043712999671698,2230.4562699000817,,,,,,,,47,A,2024-01-09_11h26.06.647,gca_avoidance_task,2022.2.4,143.9333535040401,
positions.xlsx,stimuli.xlsx,stimuli/Social1.png,stimuli/Social2.png,stimuli/Nonsocial1.png,stimuli/Nonsocial2.png,,"(0.7, 0.5)",cs_plus_s,,,,,0,0,0,0,,,,,,,,,2,10,42,2,,,,,,,,,,,,,,,,,,,,,2239.712843999965,190,none,0,,,2244.719610600034,,,,,,,,47,A,2024-01-09_11h26.06.647,gca_avoidance_task,2022.2.4,143.9333535040401,
positions.xlsx,stimuli.xlsx,stimuli/Social1.png,stimuli/Social2.png,stimuli/Nonsocial1.png,stimuli/Nonsocial2.png,,"(-0.7, 0.5)",cs_minus_ns,,,,,0,0,0,0,,,,,,,,,2,11,43,12,,,,,,,,,,,,,,,,,,,,,2253.8581491999794,195,reward,1,0.6874184999614954,0.6944665999617428,2254.5594888001215,,,,,,,,47,A,2024-01-09_11h26.06.647,gca_avoidance_task,2022.2.4,143.9333535040401,
positions.xlsx,stimuli.xlsx,stimuli/Social1.png,stimuli/Social2.png,stimuli/Nonsocial1.png,stimuli/Nonsocial2.png,,"(0.7, -0.5)",cs_minus_s,,,,,0,0,0,0,,,,,,,,,2,12,44,7,,,,,,,,,,,,,,,,,,,,,2263.8369351001456,200,reward,1,0.48656170000322163,0.4865656001493335,2264.3299165000208,,,,,,,,47,A,2024-01-09_11h26.06.647,gca_avoidance_task,2022.2.4,143.9333535040401,
positions.xlsx,stimuli.xlsx,stimuli/Social1.png,stimuli/Social2.png,stimuli/Nonsocial1.png,stimuli/Nonsocial2.png,,"(-0.7, 0.5)",cs_plus_ns,,,,,0,0,0,0,,,,,,,,,2,13,45,8,,,,,,,,,,,,,,,,,,,,,2273.7948909001425,200,none,0,,,2278.808537800098,,,,,,,,47,A,2024-01-09_11h26.06.647,gca_avoidance_task,2022.2.4,143.9333535040401,
positions.xlsx,stimuli.xlsx,stimuli/Social1.png,stimuli/Social2.png,stimuli/Nonsocial1.png,stimuli/Nonsocial2.png,,"(0.7, 0.5)",cs_plus_ns,,,,,0,0,0,0,,,,,,,,,2,14,46,10,,,,,,,,,,,,,,,,,,,,,2288.9262179001234,200,none,0,,,2293.939890800044,,,,,,,,47,A,2024-01-09_11h26.06.647,gca_avoidance_task,2022.2.4,143.9333535040401,
positions.xlsx,stimuli.xlsx,stimuli/Social1.png,stimuli/Social2.png,stimuli/Nonsocial1.png,stimuli/Nonsocial2.png,,"(0.7, -0.5)",cs_plus_ns,,,,,0,0,0,0,,,,,,,,,2,15,47,11,,,,,,,,,,,,,,,,,,,,,2303.9117474001832,200,none,0,,,2308.918490000069,,,,,,,,47,A,2024-01-09_11h26.06.647,gca_avoidance_task,2022.2.4,143.9333535040401,
positions.xlsx,stimuli.xlsx,stimuli/Social1.png,stimuli/Social2.png,stimuli/Nonsocial1.png,stimuli/Nonsocial2.png,,"(-0.7, -0.5)",cs_minus_s,,,,,0,0,0,0,,,,,,,,,3,0,48,5,,,,,,,,,,,,,,,,,,,,,2318.4944923000876,205,reward,1,0.500117399962619,0.5001211001072079,2319.001464399975,,,,,,,,47,A,2024-01-09_11h26.06.647,gca_avoidance_task,2022.2.4,143.9333535040401,
positions.xlsx,stimuli.xlsx,stimuli/Social1.png,stimuli/Social2.png,stimuli/Nonsocial1.png,stimuli/Nonsocial2.png,,"(0.7, 0.5)",cs_minus_s,,,,,0,0,0,0,,,,,,,,,3,1,49,6,,,,,,,,,,,,,,,,,,,,,2327.8413460999727,210,reward,1,0.6460889999289066,0.6460927000734955,2328.494140099967,,,,,,,,47,A,2024-01-09_11h26.06.647,gca_avoidance_task,2022.2.4,143.9333535040401,
positions.xlsx,stimuli.xlsx,stimuli/Social1.png,stimuli/Social2.png,stimuli/Nonsocial1.png,stimuli/Nonsocial2.png,,"(0.7, -0.5)",cs_plus_ns,,,,,0,0,0,0,,,,,,,,,3,2,50,11,,,,,,,,,,,,,,,,,,,,,2337.2923496000003,210,none,0,,,2342.299182899995,,,,,,,,47,A,2024-01-09_11h26.06.647,gca_avoidance_task,2022.2.4,143.9333535040401,
positions.xlsx,stimuli.xlsx,stimuli/Social1.png,stimuli/Social2.png,stimuli/Nonsocial1.png,stimuli/Nonsocial2.png,,"(-0.7, -0.5)",cs_plus_ns,,,,,0,0,0,0,,,,,,,,,3,3,51,9,,,,,,,,,,,,,,,,,,,,,2351.25710789999,210,none,0,,,2356.263911599992,,,,,,,,47,A,2024-01-09_11h26.06.647,gca_avoidance_task,2022.2.4,143.9333535040401,
positions.xlsx,stimuli.xlsx,stimuli/Social1.png,stimuli/Social2.png,stimuli/Nonsocial1.png,stimuli/Nonsocial2.png,,"(-0.7, -0.5)",cs_plus_s,,,,,0,0,0,0,,,,,,,,,3,4,52,1,,,,,,,,,,,,,,,,,,,,,2365.957923100097,210,none,0,,,2370.9646847001277,,,,,,,,47,A,2024-01-09_11h26.06.647,gca_avoidance_task,2022.2.4,143.9333535040401,
positions.xlsx,stimuli.xlsx,stimuli/Social1.png,stimuli/Social2.png,stimuli/Nonsocial1.png,stimuli/Nonsocial2.png,,"(-0.7, 0.5)",cs_plus_s,,,,,0,0,0,0,,,,,,,,,3,5,53,0,,,,,,,,,,,,,,,,,,,,,2380.610136399977,210,none,0,,,2385.61690010014,,,,,,,,47,A,2024-01-09_11h26.06.647,gca_avoidance_task,2022.2.4,143.9333535040401,
positions.xlsx,stimuli.xlsx,stimuli/Social1.png,stimuli/Social2.png,stimuli/Nonsocial1.png,stimuli/Nonsocial2.png,,"(0.7, -0.5)",cs_minus_ns,,,,,0,0,0,0,,,,,,,,,3,6,54,15,,,,,,,,,,,,,,,,,,,,,2395.206793199992,215,reward,1,0.5695962000172585,0.5695997001603246,2395.7831709000748,,,,,,,,47,A,2024-01-09_11h26.06.647,gca_avoidance_task,2022.2.4,143.9333535040401,
positions.xlsx,stimuli.xlsx,stimuli/Social1.png,stimuli/Social2.png,stimuli/Nonsocial1.png,stimuli/Nonsocial2.png,,"(-0.7, -0.5)",cs_minus_ns,,,,,0,0,0,0,,,,,,,,,3,7,55,13,,,,,,,,,,,,,,,,,,,,,2405.331410899991,220,reward,1,0.6043076999485493,0.6043247000779957,2405.9424745000433,,,,,,,,47,A,2024-01-09_11h26.06.647,gca_avoidance_task,2022.2.4,143.9333535040401,
positions.xlsx,stimuli.xlsx,stimuli/Social1.png,stimuli/Social2.png,stimuli/Nonsocial1.png,stimuli/Nonsocial2.png,,"(-0.7, 0.5)",cs_minus_ns,,,,,0,0,0,0,,,,,,,,,3,8,56,12,,,,,,,,,,,,,,,,,,,,,2414.782410300104,225,reward,1,0.569468499859795,0.5694722000043839,2415.358801800059,,,,,,,,47,A,2024-01-09_11h26.06.647,gca_avoidance_task,2022.2.4,143.9333535040401,
positions.xlsx,stimuli.xlsx,stimuli/Social1.png,stimuli/Social2.png,stimuli/Nonsocial1.png,stimuli/Nonsocial2.png,,"(-0.7, 0.5)",cs_plus_ns,,,,,0,0,0,0,,,,,,,,,3,9,57,8,,,,,,,,,,,,,,,,,,,,,2424.6084496001713,225,none,0,,,2429.6151821000967,,,,,,,,47,A,2024-01-09_11h26.06.647,gca_avoidance_task,2022.2.4,143.9333535040401,
positions.xlsx,stimuli.xlsx,stimuli/Social1.png,stimuli/Social2.png,stimuli/Nonsocial1.png,stimuli/Nonsocial2.png,,"(0.7, -0.5)",cs_plus_s,,,,,0,0,0,0,,,,,,,,,3,10,58,3,,,,,,,,,,,,,,,,,,,,,2438.830093699973,225,none,0,,,2443.836904700147,,,,,,,,47,A,2024-01-09_11h26.06.647,gca_avoidance_task,2022.2.4,143.9333535040401,
positions.xlsx,stimuli.xlsx,stimuli/Social1.png,stimuli/Social2.png,stimuli/Nonsocial1.png,stimuli/Nonsocial2.png,,"(0.7, -0.5)",cs_minus_s,,,,,0,0,0,0,,,,,,,,,3,11,59,7,,,,,,,,,,,,,,,,,,,,,2453.6489737001248,230,reward,1,0.49352330015972257,0.49352710018865764,2454.148981500184,,,,,,,,47,A,2024-01-09_11h26.06.647,gca_avoidance_task,2022.2.4,143.9333535040401,
positions.xlsx,stimuli.xlsx,stimuli/Social1.png,stimuli/Social2.png,stimuli/Nonsocial1.png,stimuli/Nonsocial2.png,,"(0.7, 0.5)",cs_minus_ns,,,,,0,0,0,0,,,,,,,,,3,12,60,14,,,,,,,,,,,,,,,,,,,,,2463.7180315000005,235,reward,1,0.4793040999211371,0.47930789995007217,2464.2041405001655,,,,,,,,47,A,2024-01-09_11h26.06.647,gca_avoidance_task,2022.2.4,143.9333535040401,
positions.xlsx,stimuli.xlsx,stimuli/Social1.png,stimuli/Social2.png,stimuli/Nonsocial1.png,stimuli/Nonsocial2.png,,"(0.7, 0.5)",cs_plus_s,,,,,0,0,0,0,,,,,,,,,3,13,61,2,,,,,,,,,,,,,,,,,,,,,2474.342612999957,235,none,0,,,2479.3493864000775,,,,,,,,47,A,2024-01-09_11h26.06.647,gca_avoidance_task,2022.2.4,143.9333535040401,
positions.xlsx,stimuli.xlsx,stimuli/Social1.png,stimuli/Social2.png,stimuli/Nonsocial1.png,stimuli/Nonsocial2.png,,"(0.7, 0.5)",cs_plus_ns,,,,,0,0,0,0,,,,,,,,,3,14,62,10,,,,,,,,,,,,,,,,,,,,,2488.7101160001475,235,none,0,,,2493.7169007000048,,,,,,,,47,A,2024-01-09_11h26.06.647,gca_avoidance_task,2022.2.4,143.9333535040401,
positions.xlsx,stimuli.xlsx,stimuli/Social1.png,stimuli/Social2.png,stimuli/Nonsocial1.png,stimuli/Nonsocial2.png,,"(-0.7, 0.5)",cs_minus_s,,,,,0,0,0,0,,,,,,,,,3,15,63,4,,,,,,,,,,,,,,,,,,,,,2502.43877899996,240,reward,1,0.4793769000098109,0.479380700038746,2502.9248387999833,,,,,,,,47,A,2024-01-09_11h26.06.647,gca_avoidance_task,2022.2.4,143.9333535040401,
positions.xlsx,stimuli.xlsx,stimuli/Social1.png,stimuli/Social2.png,stimuli/Nonsocial1.png,stimuli/Nonsocial2.png,,"(-0.7, -0.5)",cs_minus_s,,,,,0,0,0,0,,,,,,,,,4,0,64,5,,,,,,,,,,,,,,,,,,,,,2511.8619904001243,245,reward,1,0.4932619999162853,0.4932656998280436,2512.3619982001837,,,,,,,,47,A,2024-01-09_11h26.06.647,gca_avoidance_task,2022.2.4,143.9333535040401,
positions.xlsx,stimuli.xlsx,stimuli/Social1.png,stimuli/Social2.png,stimuli/Nonsocial1.png,stimuli/Nonsocial2.png,,"(-0.7, 0.5)",cs_minus_ns,,,,,0,0,0,0,,,,,,,,,4,1,65,12,,,,,,,,,,,,,,,,,,,,,2522.1394009001087,250,reward,1,0.6043833999428898,0.6043871000874788,2522.750516399974,,,,,,,,47,A,2024-01-09_11h26.06.647,gca_avoidance_task,2022.2.4,143.9333535040401,
positions.xlsx,stimuli.xlsx,stimuli/Social1.png,stimuli/Social2.png,stimuli/Nonsocial1.png,stimuli/Nonsocial2.png,,"(0.7, 0.5)",cs_plus_s,,,,,0,0,0,0,,,,,,,,,4,2,66,2,,,,,,,,,,,,,,,,,,,,,2532.715343600139,250,none,0,,,2537.722109799972,,,,,,,,47,A,2024-01-09_11h26.06.647,gca_avoidance_task,2022.2.4,143.9333535040401,
positions.xlsx,stimuli.xlsx,stimuli/Social1.png,stimuli/Social2.png,stimuli/Nonsocial1.png,stimuli/Nonsocial2.png,,"(-0.7, -0.5)",cs_plus_ns,,,,,0,0,0,0,,,,,,,,,4,3,67,9,,,,,,,,,,,,,,,,,,,,,2546.9856054000556,250,none,0,,,2551.992411199957,,,,,,,,47,A,2024-01-09_11h26.06.647,gca_avoidance_task,2022.2.4,143.9333535040401,
positions.xlsx,stimuli.xlsx,stimuli/Social1.png,stimuli/Social2.png,stimuli/Nonsocial1.png,stimuli/Nonsocial2.png,,"(0.7, -0.5)",cs_plus_s,,,,,0,0,0,0,,,,,,,,,4,4,68,3,,,,,,,,,,,,,,,,,,,,,2561.672527000075,250,none,0,,,2566.6793184001,,,,,,,,47,A,2024-01-09_11h26.06.647,gca_avoidance_task,2022.2.4,143.9333535040401,
positions.xlsx,stimuli.xlsx,stimuli/Social1.png,stimuli/Social2.png,stimuli/Nonsocial1.png,stimuli/Nonsocial2.png,,"(-0.7, 0.5)",cs_plus_s,,,,,0,0,0,0,,,,,,,,,4,5,69,0,,,,,,,,,,,,,,,,,,,,,2575.6651509001385,250,none,0,,,2580.671842999989,,,,,,,,47,A,2024-01-09_11h26.06.647,gca_avoidance_task,2022.2.4,143.9333535040401,
positions.xlsx,stimuli.xlsx,stimuli/Social1.png,stimuli/Social2.png,stimuli/Nonsocial1.png,stimuli/Nonsocial2.png,,"(0.7, 0.5)",cs_plus_ns,,,,,0,0,0,0,,,,,,,,,4,6,70,10,,,,,,,,,,,,,,,,,,,,,2589.615916199982,250,none,0,,,2594.6226677000523,,,,,,,,47,A,2024-01-09_11h26.06.647,gca_avoidance_task,2022.2.4,143.9333535040401,
positions.xlsx,stimuli.xlsx,stimuli/Social1.png,stimuli/Social2.png,stimuli/Nonsocial1.png,stimuli/Nonsocial2.png,,"(0.7, -0.5)",cs_minus_ns,,,,,0,0,0,0,,,,,,,,,4,7,71,15,,,,,,,,,,,,,,,,,,,,,2603.552873500157,255,reward,1,0.5212057000026107,0.5212098001502454,2604.0806657001376,,,,,,,,47,A,2024-01-09_11h26.06.647,gca_avoidance_task,2022.2.4,143.9333535040401,
positions.xlsx,stimuli.xlsx,stimuli/Social1.png,stimuli/Social2.png,stimuli/Nonsocial1.png,stimuli/Nonsocial2.png,,"(-0.7, -0.5)",cs_minus_ns,,,,,0,0,0,0,,,,,,,,,4,8,72,13,,,,,,,,,,,,,,,,,,,,,2613.226106000133,260,reward,1,0.423860999988392,0.42386480001732707,2613.65667330008,,,,,,,,47,A,2024-01-09_11h26.06.647,gca_avoidance_task,2022.2.4,143.9333535040401,
positions.xlsx,stimuli.xlsx,stimuli/Social1.png,stimuli/Social2.png,stimuli/Nonsocial1.png,stimuli/Nonsocial2.png,,"(0.7, 0.5)",cs_minus_s,,,,,0,0,0,0,,,,,,,,,4,9,73,6,,,,,,,,,,,,,,,,,,,,,2623.2257681000046,265,reward,1,0.46542209992185235,0.46542559983208776,2623.697945300024,,,,,,,,47,A,2024-01-09_11h26.06.647,gca_avoidance_task,2022.2.4,143.9333535040401,
positions.xlsx,stimuli.xlsx,stimuli/Social1.png,stimuli/Social2.png,stimuli/Nonsocial1.png,stimuli/Nonsocial2.png,,"(0.7, 0.5)",cs_minus_ns,,,,,0,0,0,0,,,,,,,,,4,10,74,14,,,,,,,,,,,,,,,,,,,,,2633.2739266999997,270,reward,1,0.6877847001887858,0.687788300216198,2633.9683529001195,,,,,,,,47,A,2024-01-09_11h26.06.647,gca_avoidance_task,2022.2.4,143.9333535040401,
positions.xlsx,stimuli.xlsx,stimuli/Social1.png,stimuli/Social2.png,stimuli/Nonsocial1.png,stimuli/Nonsocial2.png,,"(0.7, -0.5)",cs_plus_ns,,,,,0,0,0,0,,,,,,,,,4,11,75,11,,,,,,,,,,,,,,,,,,,,,2643.579097200185,270,none,0,,,2648.5858907001093,,,,,,,,47,A,2024-01-09_11h26.06.647,gca_avoidance_task,2022.2.4,143.9333535040401,
positions.xlsx,stimuli.xlsx,stimuli/Social1.png,stimuli/Social2.png,stimuli/Nonsocial1.png,stimuli/Nonsocial2.png,,"(0.7, -0.5)",cs_minus_s,,,,,0,0,0,0,,,,,,,,,4,12,76,7,,,,,,,,,,,,,,,,,,,,,2657.474394200137,275,reward,1,0.4723670999519527,0.4792870001401752,2657.960521900095,,,,,,,,47,A,2024-01-09_11h26.06.647,gca_avoidance_task,2022.2.4,143.9333535040401,
positions.xlsx,stimuli.xlsx,stimuli/Social1.png,stimuli/Social2.png,stimuli/Nonsocial1.png,stimuli/Nonsocial2.png,,"(-0.7, 0.5)",cs_plus_ns,,,,,0,0,0,0,,,,,,,,,4,13,77,8,,,,,,,,,,,,,,,,,,,,,2667.432386300061,275,shock,1,0.36855669994838536,0.36856039986014366,2667.807299999986,,,,,,,,47,A,2024-01-09_11h26.06.647,gca_avoidance_task,2022.2.4,143.9333535040401,
positions.xlsx,stimuli.xlsx,stimuli/Social1.png,stimuli/Social2.png,stimuli/Nonsocial1.png,stimuli/Nonsocial2.png,,"(-0.7, 0.5)",cs_minus_s,,,,,0,0,0,0,,,,,,,,,4,14,78,4,,,,,,,,,,,,,,,,,,,,,2677.091675300151,280,reward,1,0.43771009985357523,0.4377138998825103,2677.5361035000533,,,,,,,,47,A,2024-01-09_11h26.06.647,gca_avoidance_task,2022.2.4,143.9333535040401,
positions.xlsx,stimuli.xlsx,stimuli/Social1.png,stimuli/Social2.png,stimuli/Nonsocial1.png,stimuli/Nonsocial2.png,,"(-0.7, -0.5)",cs_plus_s,,,,,0,0,0,0,,,,,,,,,4,15,79,1,,,,,,,,,,,,,,,,,,,,,2687.084366900148,280,shock,1,0.493607500102371,0.49361290014348924,2687.5843475,,,,,,,,47,A,2024-01-09_11h26.06.647,gca_avoidance_task,2022.2.4,143.9333535040401,
positions.xlsx,stimuli.xlsx,stimuli/Social1.png,stimuli/Social2.png,stimuli/Nonsocial1.png,stimuli/Nonsocial2.png,cs_minus_ns,,,,,,,0,0,0,0,,,,,,,,,,,,,0,0,0,3,,,,,,,,,,,,,2703.549010799965,6.0,11.147961299866438,,,,,,,,,4.0,6.840435900026932,,,,,,47,A,2024-01-09_11h26.06.647,gca_avoidance_task,2022.2.4,143.9333535040401,
positions.xlsx,stimuli.xlsx,stimuli/Social1.png,stimuli/Social2.png,stimuli/Nonsocial1.png,stimuli/Nonsocial2.png,cs_plus_s,,,,,,,0,0,0,0,,,,,,,,,,,,,0,1,1,0,,,,,,,,,,,,,2716.305464700097,5.0,5.18776460015215,,,,,,,,,,,,,,,,47,A,2024-01-09_11h26.06.647,gca_avoidance_task,2022.2.4,143.9333535040401,
positions.xlsx,stimuli.xlsx,stimuli/Social1.png,stimuli/Social2.png,stimuli/Nonsocial1.png,stimuli/Nonsocial2.png,cs_plus_ns,,,,,,,0,0,0,0,,,,,,,,,,,,,0,2,2,1,,,,,,,,,,,,,2723.7357547001448,2.0,5.4920414998196065,,,,,,,,,,,,,,,,47,A,2024-01-09_11h26.06.647,gca_avoidance_task,2022.2.4,143.9333535040401,
positions.xlsx,stimuli.xlsx,stimuli/Social1.png,stimuli/Social2.png,stimuli/Nonsocial1.png,stimuli/Nonsocial2.png,cs_minus_s,,,,,,,0,0,0,0,,,,,,,,,,,,,0,3,3,2,,,,,,,,,,,,,2730.068821000168,10.0,6.840883900178596,,,,,,,,,,,,,,,,47,A,2024-01-09_11h26.06.647,gca_avoidance_task,2022.2.4,143.9333535040401,
positions.xlsx,stimuli.xlsx,stimuli/Social1.png,stimuli/Social2.png,stimuli/Nonsocial1.png,stimuli/Nonsocial2.png,cs_minus_ns,,,,,,,0,0,0,0,,,,,,,,,,,,,,,,,0,0,0,3,,,,,,,,,,,,,,,,,,,,,,2738.040712499991,2749.401411100058,2,0.023021999979391694,2.714996400056407,47,A,2024-01-09_11h26.06.647,gca_avoidance_task,2022.2.4,143.9333535040401,
positions.xlsx,stimuli.xlsx,stimuli/Social1.png,stimuli/Social2.png,stimuli/Nonsocial1.png,stimuli/Nonsocial2.png,cs_plus_ns,,,,,,,0,0,0,0,,,,,,,,,,,,,,,,,0,1,1,1,,,,,,,,,,,,,,,,,,,,,,,2764.810531800147,1,0.015827700030058622,9.99998200009577,47,A,2024-01-09_11h26.06.647,gca_avoidance_task,2022.2.4,143.9333535040401,
positions.xlsx,stimuli.xlsx,stimuli/Social1.png,stimuli/Social2.png,stimuli/Nonsocial1.png,stimuli/Nonsocial2.png,cs_minus_s,,,,,,,0,0,0,0,,,,,,,,,,,,,,,,,0,2,2,2,,,,,,,,,,,,,,,,,,,,,,,2780.226590800099,2,0.014774399809539318,1.333392599830404,47,A,2024-01-09_11h26.06.647,gca_avoidance_task,2022.2.4,143.9333535040401,
positions.xlsx,stimuli.xlsx,stimuli/Social1.png,stimuli/Social2.png,stimuli/Nonsocial1.png,stimuli/Nonsocial2.png,cs_plus_s,,,,,,,0,0,0,0,,,,,,,,,,,,,,,,,0,3,3,0,,,,,,,,,,,,,,,,,,,,,,,2795.663501000032,1,0.014086599927395582,10.000108999898657,47,A,2024-01-09_11h26.06.647,gca_avoidance_task,2022.2.4,143.9333535040401,
positions.xlsx,stimuli.xlsx,stimuli/Social1.png,stimuli/Social2.png,stimuli/Nonsocial1.png,stimuli/Nonsocial2.png,cs_minus_ns,,,,,,,0,0,0,0,,,,,,,,,,,,,,,,,1,0,4,3,,,,,,,,,,,,,,,,,,,,,,,2810.1768159000203,1,0.015472300117835402,9.999929100042209,47,A,2024-01-09_11h26.06.647,gca_avoidance_task,2022.2.4,143.9333535040401,
positions.xlsx,stimuli.xlsx,stimuli/Social1.png,stimuli/Social2.png,stimuli/Nonsocial1.png,stimuli/Nonsocial2.png,cs_plus_ns,,,,,,,0,0,0,0,,,,,,,,,,,,,,,,,1,1,5,1,,,,,,,,,,,,,,,,,,,,,,,2825.3776722999755,1,0.014718600083142519,10.000160299940035,47,A,2024-01-09_11h26.06.647,gca_avoidance_task,2022.2.4,143.9333535040401,
positions.xlsx,stimuli.xlsx,stimuli/Social1.png,stimuli/Social2.png,stimuli/Nonsocial1.png,stimuli/Nonsocial2.png,cs_plus_s,,,,,,,0,0,0,0,,,,,,,,,,,,,,,,,1,2,6,0,,,,,,,,,,,,,,,,,,,,,,,2840.1409440001007,1,0.014215899864211679,9.99997720005922,47,A,2024-01-09_11h26.06.647,gca_avoidance_task,2022.2.4,143.9333535040401,
positions.xlsx,stimuli.xlsx,stimuli/Social1.png,stimuli/Social2.png,stimuli/Nonsocial1.png,stimuli/Nonsocial2.png,cs_minus_s,,,,,,,0,0,0,0,,,,,,,,,,,,,,,,,1,3,7,2,,,,,,,,,,,,,,,,,,,,,,,2854.800095899962,1,0.014011500170454383,9.999997399980202,47,A,2024-01-09_11h26.06.647,gca_avoidance_task,2022.2.4,143.9333535040401,
positions.xlsx,stimuli.xlsx,stimuli/Social1.png,stimuli/Social2.png,stimuli/Nonsocial1.png,stimuli/Nonsocial2.png,cs_minus_ns,,,,,,,0,0,0,0,,,,,,,,,,,,,,,,,2,0,8,3,,,,,,,,,,,,,,,,,,,,,,,2869.556465700036,1,0.014979799976572394,10.000022200169042,47,A,2024-01-09_11h26.06.647,gca_avoidance_task,2022.2.4,143.9333535040401,
positions.xlsx,stimuli.xlsx,stimuli/Social1.png,stimuli/Social2.png,stimuli/Nonsocial1.png,stimuli/Nonsocial2.png,cs_minus_s,,,,,,,0,0,0,0,,,,,,,,,,,,,,,,,2,1,9,2,,,,,,,,,,,,,,,,,,,,,,,2884.3753373001236,3,0.013680300209671259,0.45867530000396073,47,A,2024-01-09_11h26.06.647,gca_avoidance_task,2022.2.4,143.9333535040401,
positions.xlsx,stimuli.xlsx,stimuli/Social1.png,stimuli/Social2.png,stimuli/Nonsocial1.png,stimuli/Nonsocial2.png,cs_plus_s,,,,,,,0,0,0,0,,,,,,,,,,,,,,,,,2,2,10,0,,,,,,,,,,,,,,,,,,,,,,,2898.902593200095,1,0.013460699934512377,10.000064800027758,47,A,2024-01-09_11h26.06.647,gca_avoidance_task,2022.2.4,143.9333535040401,
positions.xlsx,stimuli.xlsx,stimuli/Social1.png,stimuli/Social2.png,stimuli/Nonsocial1.png,stimuli/Nonsocial2.png,cs_plus_ns,,,,,,,0,0,0,0,,,,,,,,,,,,,,,,,2,3,11,1,,,,,,,,,,,,,,,,,,,,,,,2914.228364000097,1,0.015059700002893806,9.999941899906844,47,A,2024-01-09_11h26.06.647,gca_avoidance_task,2022.2.4,143.9333535040401,
positions.xlsx,stimuli.xlsx,stimuli/Social1.png,stimuli/Social2.png,stimuli/Nonsocial1.png,stimuli/Nonsocial2.png,cs_plus_s,,,,,,,0,0,0,0,,,,,,,,,,,,,,,,,3,0,12,0,,,,,,,,,,,,,,,,,,,,,,,2928.929175800178,1,0.013960800133645535,9.999966900097206,47,A,2024-01-09_11h26.06.647,gca_avoidance_task,2022.2.4,143.9333535040401,
positions.xlsx,stimuli.xlsx,stimuli/Social1.png,stimuli/Social2.png,stimuli/Nonsocial1.png,stimuli/Nonsocial2.png,cs_plus_ns,,,,,,,0,0,0,0,,,,,,,,,,,,,,,,,3,1,13,1,,,,,,,,,,,,,,,,,,,,,,,2943.8174638000783,2,0.01489630015566945,6.194427100010216,47,A,2024-01-09_11h26.06.647,gca_avoidance_task,2022.2.4,143.9333535040401,
positions.xlsx,stimuli.xlsx,stimuli/Social1.png,stimuli/Social2.png,stimuli/Nonsocial1.png,stimuli/Nonsocial2.png,cs_minus_ns,,,,,,,0,0,0,0,,,,,,,,,,,,,,,,,3,2,14,3,,,,,,,,,,,,,,,,,,,,,,,2959.018267699983,1,0.014902099967002869,9.763645099941641,47,A,2024-01-09_11h26.06.647,gca_avoidance_task,2022.2.4,143.9333535040401,
positions.xlsx,stimuli.xlsx,stimuli/Social1.png,stimuli/Social2.png,stimuli/Nonsocial1.png,stimuli/Nonsocial2.png,cs_minus_s,,,,,,,0,0,0,0,,,,,,,,,,,,,,,,,3,3,15,2,,,,,,,,,,,,,,,,,,,,,,,2974.2676729001105,1,0.014425599947571754,9.999856200069189,47,A,2024-01-09_11h26.06.647,gca_avoidance_task,2022.2.4,143.9333535040401,
positions.xlsx,stimuli.xlsx,stimuli/Social1.png,stimuli/Social2.png,stimuli/Nonsocial1.png,stimuli/Nonsocial2.png,cs_minus_ns,,,,,,,0,0,0,0,,,,,,,,,,,,,,,,,4,0,16,3,,,,,,,,,,,,,,,,,,,,,,,2989.1559807001613,3,0.014913700055330992,1.7501805999781936,47,A,2024-01-09_11h26.06.647,gca_avoidance_task,2022.2.4,143.9333535040401,
positions.xlsx,stimuli.xlsx,stimuli/Social1.png,stimuli/Social2.png,stimuli/Nonsocial1.png,stimuli/Nonsocial2.png,cs_plus_s,,,,,,,0,0,0,0,,,,,,,,,,,,,,,,,4,1,17,0,,,,,,,,,,,,,,,,,,,,,,,3004.24568599998,2,0.014370399992913008,0.7016155999153852,47,A,2024-01-09_11h26.06.647,gca_avoidance_task,2022.2.4,143.9333535040401,
positions.xlsx,stimuli.xlsx,stimuli/Social1.png,stimuli/Social2.png,stimuli/Nonsocial1.png,stimuli/Nonsocial2.png,cs_plus_ns,,,,,,,0,0,0,0,,,,,,,,,,,,,,,,,4,2,18,1,,,,,,,,,,,,,,,,,,,,,,,3019.481207899982,1,0.015306799905374646,10.000061499886215,47,A,2024-01-09_11h26.06.647,gca_avoidance_task,2022.2.4,143.9333535040401,
positions.xlsx,stimuli.xlsx,stimuli/Social1.png,stimuli/Social2.png,stimuli/Nonsocial1.png,stimuli/Nonsocial2.png,cs_minus_s,,,,,,,0,0,0,0,,,,,,,,,,,,,,,,,4,3,19,2,,,,,,,,,,,,,,,,,,,,,,,3034.5986735001206,2,0.014866200042888522,1.4654079999309033,47,A,2024-01-09_11h26.06.647,gca_avoidance_task,2022.2.4,143.9333535040401,
positions.xlsx,stimuli.xlsx,stimuli/Social1.png,stimuli/Social2.png,stimuli/Nonsocial1.png,stimuli/Nonsocial2.png,cs_minus_s,,,,,,,0,0,0,0,,,,,,,,,,,,,,,,,5,0,20,2,,,,,,,,,,,,,,,,,,,,,,,3049.1606073000003,1,0.014289699960500002,9.999939000001177,47,A,2024-01-09_11h26.06.647,gca_avoidance_task,2022.2.4,143.9333535040401,
positions.xlsx,stimuli.xlsx,stimuli/Social1.png,stimuli/Social2.png,stimuli/Nonsocial1.png,stimuli/Nonsocial2.png,cs_minus_ns,,,,,,,0,0,0,0,,,,,,,,,,,,,,,,,5,1,21,3,,,,,,,,,,,,,,,,,,,,,,,3064.6252816000488,2,0.015389699954539537,0.6598439000081271,47,A,2024-01-09_11h26.06.647,gca_avoidance_task,2022.2.4,143.9333535040401,
positions.xlsx,stimuli.xlsx,stimuli/Social1.png,stimuli/Social2.png,stimuli/Nonsocial1.png,stimuli/Nonsocial2.png,cs_plus_ns,,,,,,,0,0,0,0,,,,,,,,,,,,,,,,,5,2,22,1,,,,,,,,,,,,,,,,,,,,,,,3079.4719079001807,3,0.015431999927386642,5.875073099974543,47,A,2024-01-09_11h26.06.647,gca_avoidance_task,2022.2.4,143.9333535040401,
positions.xlsx,stimuli.xlsx,stimuli/Social1.png,stimuli/Social2.png,stimuli/Nonsocial1.png,stimuli/Nonsocial2.png,cs_plus_s,,,,,,,0,0,0,0,,,,,,,,,,,,,,,,,5,3,23,0,,,,,,,,,,,,,,,,,,,,,,,3094.867173100123,2,0.015133099863305688,9.02068189997226,47,A,2024-01-09_11h26.06.647,gca_avoidance_task,2022.2.4,143.9333535040401,
positions.xlsx,stimuli.xlsx,stimuli/Social1.png,stimuli/Social2.png,stimuli/Nonsocial1.png,stimuli/Nonsocial2.png,cs_plus_ns,,,,,,,0,0,0,0,,,,,,,,,,,,,,,,,6,0,24,1,,,,,,,,,,,,,,,,,,,,,,,3110.1304487001617,2,0.015168700134381652,0.7987629000563174,47,A,2024-01-09_11h26.06.647,gca_avoidance_task,2022.2.4,143.9333535040401,
positions.xlsx,stimuli.xlsx,stimuli/Social1.png,stimuli/Social2.png,stimuli/Nonsocial1.png,stimuli/Nonsocial2.png,cs_minus_s,,,,,,,0,0,0,0,,,,,,,,,,,,,,,,,6,1,25,2,,,,,,,,,,,,,,,,,,,,,,,3125.164616300026,6,0.014067299896851182,1.3751358999870718,47,A,2024-01-09_11h26.06.647,gca_avoidance_task,2022.2.4,143.9333535040401,
positions.xlsx,stimuli.xlsx,stimuli/Social1.png,stimuli/Social2.png,stimuli/Nonsocial1.png,stimuli/Nonsocial2.png,cs_minus_ns,,,,,,,0,0,0,0,,,,,,,,,,,,,,,,,6,2,26,3,,,,,,,,,,,,,,,,,,,,,,,3140.3098343000747,3,0.015355199808254838,3.875327699817717,47,A,2024-01-09_11h26.06.647,gca_avoidance_task,2022.2.4,143.9333535040401,
positions.xlsx,stimuli.xlsx,stimuli/Social1.png,stimuli/Social2.png,stimuli/Nonsocial1.png,stimuli/Nonsocial2.png,cs_plus_s,,,,,,,0,0,0,0,,,,,,,,,,,,,,,,,6,3,27,0,,,,,,,,,,,,,,,,,,,,,,,3154.920396700036,1,0.013538599945604801,9.999995900085196,47,A,2024-01-09_11h26.06.647,gca_avoidance_task,2022.2.4,143.9333535040401,
positions.xlsx,stimuli.xlsx,stimuli/Social1.png,stimuli/Social2.png,stimuli/Nonsocial1.png,stimuli/Nonsocial2.png,cs_plus_s,,,,,,,0,0,0,0,,,,,,,,,,,,,,,,,7,0,28,0,,,,,,,,,,,,,,,,,,,,,,,3170.0100746001117,1,0.013788399985060096,9.999940699897707,47,A,2024-01-09_11h26.06.647,gca_avoidance_task,2022.2.4,143.9333535040401,
positions.xlsx,stimuli.xlsx,stimuli/Social1.png,stimuli/Social2.png,stimuli/Nonsocial1.png,stimuli/Nonsocial2.png,cs_minus_ns,,,,,,,0,0,0,0,,,,,,,,,,,,,,,,,7,1,29,3,,,,,,,,,,,,,,,,,,,,,,,3185.4331029001623,4,0.014701599953696132,0.9376622999552637,47,A,2024-01-09_11h26.06.647,gca_avoidance_task,2022.2.4,143.9333535040401,
positions.xlsx,stimuli.xlsx,stimuli/Social1.png,stimuli/Social2.png,stimuli/Nonsocial1.png,stimuli/Nonsocial2.png,cs_minus_s,,,,,,,0,0,0,0,,,,,,,,,,,,,,,,,7,2,30,2,,,,,,,,,,,,,,,,,,,,,,,3200.022849700181,4,0.021387899992987514,1.826721099903807,47,A,2024-01-09_11h26.06.647,gca_avoidance_task,2022.2.4,143.9333535040401,
positions.xlsx,stimuli.xlsx,stimuli/Social1.png,stimuli/Social2.png,stimuli/Nonsocial1.png,stimuli/Nonsocial2.png,cs_plus_ns,,,,,,,0,0,0,0,,,,,,,,,,,,,,,,,7,3,31,1,,,,,,,,,,,,,,,,,,,,,,,3215.12638729997,1,0.014887399971485138,10.000050700036809,47,A,2024-01-09_11h26.06.647,gca_avoidance_task,2022.2.4,143.9333535040401,
positions.xlsx,stimuli.xlsx,stimuli/Social1.png,stimuli/Social2.png,stimuli/Nonsocial1.png,stimuli/Nonsocial2.png,cs_plus_s,,,,,,,0,0,0,0,,,,,,,,,,,,,,,,,8,0,32,0,,,,,,,,,,,,,,,,,,,,,,,3229.959157400066,2,0.0144917001016438,8.01377040008083,47,A,2024-01-09_11h26.06.647,gca_avoidance_task,2022.2.4,143.9333535040401,
positions.xlsx,stimuli.xlsx,stimuli/Social1.png,stimuli/Social2.png,stimuli/Nonsocial1.png,stimuli/Nonsocial2.png,cs_plus_ns,,,,,,,0,0,0,0,,,,,,,,,,,,,,,,,8,1,33,1,,,,,,,,,,,,,,,,,,,,,,,3244.6946708001196,4,0.015332499984651804,1.1042484000790864,47,A,2024-01-09_11h26.06.647,gca_avoidance_task,2022.2.4,143.9333535040401,
positions.xlsx,stimuli.xlsx,stimuli/Social1.png,stimuli/Social2.png,stimuli/Nonsocial1.png,stimuli/Nonsocial2.png,cs_minus_s,,,,,,,0,0,0,0,,,,,,,,,,,,,,,,,8,2,34,2,,,,,,,,,,,,,,,,,,,,,,,3259.8468735001516,3,0.014997199876233935,3.8750064000487328,47,A,2024-01-09_11h26.06.647,gca_avoidance_task,2022.2.4,143.9333535040401,
positions.xlsx,stimuli.xlsx,stimuli/Social1.png,stimuli/Social2.png,stimuli/Nonsocial1.png,stimuli/Nonsocial2.png,cs_minus_ns,,,,,,,0,0,0,0,,,,,,,,,,,,,,,,,8,3,35,3,,,,,,,,,,,,,,,,,,,,,,,3274.9990765000694,2,0.015245900023728609,5.569445599801838,47,A,2024-01-09_11h26.06.647,gca_avoidance_task,2022.2.4,143.9333535040401,
positions.xlsx,stimuli.xlsx,stimuli/Social1.png,stimuli/Social2.png,stimuli/Nonsocial1.png,stimuli/Nonsocial2.png,cs_plus_ns,,,,,,,0,0,0,0,,,,,,,,,,,,,,,,,9,0,36,1,,,,,,,,,,,,,,,,,,,,,,,3290.283216100186,2,0.01531209982931614,0.5349393000360578,47,A,2024-01-09_11h26.06.647,gca_avoidance_task,2022.2.4,143.9333535040401,
positions.xlsx,stimuli.xlsx,stimuli/Social1.png,stimuli/Social2.png,stimuli/Nonsocial1.png,stimuli/Nonsocial2.png,cs_minus_ns,,,,,,,0,0,0,0,,,,,,,,,,,,,,,,,9,1,37,3,,,,,,,,,,,,,,,,,,,,,,,3304.949302599998,3,0.015485999872907996,4.15279580000788,47,A,2024-01-09_11h26.06.647,gca_avoidance_task,2022.2.4,143.9333535040401,
positions.xlsx,stimuli.xlsx,stimuli/Social1.png,stimuli/Social2.png,stimuli/Nonsocial1.png,stimuli/Nonsocial2.png,cs_plus_s,,,,,,,0,0,0,0,,,,,,,,,,,,,,,,,9,2,38,0,,,,,,,,,,,,,,,,,,,,,,,3320.3167779999785,1,0.0141571001149714,9.999958199914545,47,A,2024-01-09_11h26.06.647,gca_avoidance_task,2022.2.4,143.9333535040401,
positions.xlsx,stimuli.xlsx,stimuli/Social1.png,stimuli/Social2.png,stimuli/Nonsocial1.png,stimuli/Nonsocial2.png,cs_minus_s,,,,,,,0,0,0,0,,,,,,,,,,,,,,,,,9,3,39,2,,,,,,,,,,,,,,,,,,,,,,,3335.3300896000583,2,0.014385099988430738,1.076591599965468,47,A,2024-01-09_11h26.06.647,gca_avoidance_task,2022.2.4,143.9333535040401,
positions.xlsx,stimuli.xlsx,stimuli/Social1.png,stimuli/Social2.png,stimuli/Nonsocial1.png,stimuli/Nonsocial2.png,cs_plus_ns,,,,,,,0,0,0,0,,,,,,,,,,,,,,,,,,,,,0,0,0,1,,,,,3349.447614400182,3.0,7.015448399819434,,,,,,,,,,,,,,,,47,A,2024-01-09_11h26.06.647,gca_avoidance_task,2022.2.4,143.9333535040401,
positions.xlsx,stimuli.xlsx,stimuli/Social1.png,stimuli/Social2.png,stimuli/Nonsocial1.png,stimuli/Nonsocial2.png,cs_minus_s,,,,,,,0,0,0,0,,,,,,,,,,,,,,,,,,,,,0,1,1,2,,,,,3358.488915000111,9.0,4.375060700112954,,,,,,,,,,,,,,,,47,A,2024-01-09_11h26.06.647,gca_avoidance_task,2022.2.4,143.9333535040401,
positions.xlsx,stimuli.xlsx,stimuli/Social1.png,stimuli/Social2.png,stimuli/Nonsocial1.png,stimuli/Nonsocial2.png,cs_plus_s,,,,,,,0,0,0,0,,,,,,,,,,,,,,,,,,,,,0,2,2,0,,,,,3365.252543900162,7.0,4.2230903001036495,,,,,,,,,,,,,,,,47,A,2024-01-09_11h26.06.647,gca_avoidance_task,2022.2.4,143.9333535040401,
positions.xlsx,stimuli.xlsx,stimuli/Social1.png,stimuli/Social2.png,stimuli/Nonsocial1.png,stimuli/Nonsocial2.png,cs_minus_ns,,,,,,,0,0,0,0,,,,,,,,,,,,,,,,,,,,,0,3,3,3,,,,,3372.932824900141,5.0,10.992472300073132,,,,,,,,,,,,,,,,47,A,2024-01-09_11h26.06.647,gca_avoidance_task,2022.2.4,143.9333535040401,
