posFile,stimFile,cs_plus_s,cs_minus_s,cs_plus_ns,cs_minus_ns,stimtype,position,trialtype,trials_threshold.thisRepN,trials_threshold.thisTrialN,trials_threshold.thisN,trials_threshold.thisIndex,blocks.thisRepN,blocks.thisTrialN,blocks.thisN,blocks.thisIndex,ratingtrials1.thisRepN,ratingtrials1.thisTrialN,ratingtrials1.thisN,ratingtrials1.thisIndex,learning_trials.thisRepN,learning_trials.thisTrialN,learning_trials.thisN,learning_trials.thisIndex,trials.thisRepN,trials.thisTrialN,trials.thisN,trials.thisIndex,ratingtrials2.thisRepN,ratingtrials2.thisTrialN,ratingtrials2.thisN,ratingtrials2.thisIndex,testtrials.thisRepN,testtrials.thisTrialN,testtrials.thisN,testtrials.thisIndex,ratingtrials3.thisRepN,ratingtrials3.thisTrialN,ratingtrials3.thisN,ratingtrials3.thisIndex,textStart.started,spaceStart.started,spaceStart.keys,spaceStart.rt,textPainThreshold.started,spacePainThreshold.started,spacePainThreshold.keys,spacePainThreshold.rt,textRateT.started,text_noPainT.started,text_slightPainT.started,text_highPainT.started,sliderPainT.started,keys_PainT.started,sliderPainT.response,sliderPainT.rt,keys_PainT.keys,keys_PainT.rt,fixcrossT.started,portShock1T.started,portShock1T.stopped,portShock2T.started,portShock2T.stopped,portShock3T.started,portShock3T.stopped,fixcrossT.stopped,text_ETCalibration.started,spaceETCalibration.started,spaceETCalibration.keys,spaceETCalibration.rt,textStartExp.started,spaceStartExp.started,spaceStartExp.keys,spaceStartExp.rt,imageRating.started,sliderStim.started,spaceStim.started,sliderStim.response,sliderStim.rt,spaceStim.keys,spaceStim.rt,textStartTask.started,spaceStartTask.started,spaceStartTask.keys,spaceStartTask.rt,blankScreen.started,blankScreen.stopped,fixcross.started,image.started,roi.started,gazeCursor.started,portImage.started,portImage.stopped,score,outcome,roi.numLooks,roi.timesOn,roi.timesOff,imageFeedback.started,gazeCursor_Feedback.started,soundFeedback.started,portShock1.started,portShock1.stopped,portShock2.started,portShock2.stopped,portShock3.started,portShock3.stopped,soundFeedback.stopped,fixcrossE.started,fixcrossE.stopped,textRepeatTask.started,textboxRepeatInstruction.started,textRepeatSpace.started,spaceRepeatTask.started,spaceRepeatTask.keys,spaceRepeatTask.rt,textRate.started,text_noPain.started,text_slightPain.started,text_highPain.started,sliderPain.started,textSpacePain.started,spacePain.started,sliderPain.response,sliderPain.rt,spacePain.keys,spacePain.rt,textTestInstr.started,spaceTestInstr.started,spaceTestInstr.keys,spaceTestInstr.rt,imageTest.started,roiTest.started,portTestImage.started,portTestImage.stopped,roiTest.numLooks,roiTest.timesOn,roiTest.timesOff,participant,group,date,expName,psychopyVersion,frameRate,
,,,,,,,,,,,,,,,,,,,,,,,,,,,,,,,,,,,,,,,,,19.392072100017685,19.392072100017685,space,2.174851099960506,,,,,,,,,,,,,,,,,,,,,,,,,,,,,,,,,,,,,,,,,,,,,,,,,,,,,,,,,,,,,,,,,,,,,,,,,,,,,,,,,,,,,,,,,,,,,,,18,A,2023-12-11_12h11.51.461,gca_avoidance_task,2022.2.4,143.95697412031666,
,,,,,,,,,,,,,,,,,,,,,,,,,,,,,,,,,,,,,,,,,,,,,21.579467500036117,21.579467500036117,space,0.7960458000306971,,,,,,,,,,,,,,,,,,,,,,,,,,,,,,,,,,,,,,,,,,,,,,,,,,,,,,,,,,,,,,,,,,,,,,,,,,,,,,,,,,,,,,,,,,,18,A,2023-12-11_12h11.51.461,gca_avoidance_task,2022.2.4,143.95697412031666,
,,,,,,,,,0,0,0,0,,,,,,,,,,,,,,,,,,,,,,,,,,,,,,,,,,,,,23.6558244000189,23.6558244000189,23.6558244000189,23.6558244000189,23.6558244000189,23.6558244000189,None,None,s,9.383790099993348,33.64848340000026,0.10190030001103878,0.10885330004384741,0.15048680000472814,0.1574537000269629,0.1991548000369221,0.20610480004688725,34.40535090002231,,,,,,,,,,,,,,,,,,,,,,,,,,,,,,,,,,,,,,,,,,,,,,,,,,,,,,,,,,,,,,,,,,,,,,,,,18,A,2023-12-11_12h11.51.461,gca_avoidance_task,2022.2.4,143.95697412031666,
,,,,,,,,,1,0,1,0,,,,,,,,,,,,,,,,,,,,,,,,,,,,,,,,,,,,,34.40535090002231,34.40535090002231,34.40535090002231,34.40535090002231,34.40535090002231,34.40535090002231,0.0,3.075113600003533,s,8.458022899983916,43.5161479000235,0.10123979998752475,0.10814959998242557,0.1498342999839224,0.15678600000683218,0.20541789999697357,0.21239200001582503,44.266087600030005,,,,,,,,,,,,,,,,,,,,,,,,,,,,,,,,,,,,,,,,,,,,,,,,,,,,,,,,,,,,,,,,,,,,,,,,,18,A,2023-12-11_12h11.51.461,gca_avoidance_task,2022.2.4,143.95697412031666,
,,,,,,,,,2,0,2,0,,,,,,,,,,,,,,,,,,,,,,,,,,,,,,,,,,,,,44.266087600030005,44.266087600030005,44.266087600030005,44.266087600030005,44.266087600030005,44.266087600030005,1.0,1.3848878999706358,s,6.197351599985268,50.96718650002731,0.09932969999499619,0.10633239999879152,0.15488089999416843,0.1618484000209719,0.2034927000058815,0.21048559999326244,51.80744430003688,,,,,,,,,,,,,,,,,,,,,,,,,,,,,,,,,,,,,,,,,,,,,,,,,,,,,,,,,,,,,,,,,,,,,,,,,18,A,2023-12-11_12h11.51.461,gca_avoidance_task,2022.2.4,143.95697412031666,
,,,,,,,,,3,0,3,0,,,,,,,,,,,,,,,,,,,,,,,,,,,,,,,,,,,,,51.80744430003688,51.80744430003688,51.80744430003688,51.80744430003688,51.80744430003688,51.80744430003688,1.0,0.8699918999918737,s,5.223110100021586,57.60580810002284,0.10130710003431886,0.10822019999613985,0.14990650000981987,0.15682350000133738,0.2054880000068806,0.21242620004341006,58.383562800008804,,,,,,,,,,,,,,,,,,,,,,,,,,,,,,,,,,,,,,,,,,,,,,,,,,,,,,,,,,,,,,,,,,,,,,,,,18,A,2023-12-11_12h11.51.461,gca_avoidance_task,2022.2.4,143.95697412031666,
,,,,,,,,,4,0,4,0,,,,,,,,,,,,,,,,,,,,,,,,,,,,,,,,,,,,,58.383562800008804,58.383562800008804,58.383562800008804,58.383562800008804,58.383562800008804,58.383562800008804,2.0,2.957809499988798,s,7.304471799987368,66.18877250002697,0.1012267000041902,0.10824650002177805,0.14994209998985752,0.15691510000033304,0.2054268000065349,0.2124644999857992,66.9387776000076,,,,,,,,,,,,,,,,,,,,,,,,,,,,,,,,,,,,,,,,,,,,,,,,,,,,,,,,,,,,,,,,,,,,,,,,,18,A,2023-12-11_12h11.51.461,gca_avoidance_task,2022.2.4,143.95697412031666,
,,,,,,,,,5,0,5,0,,,,,,,,,,,,,,,,,,,,,,,,,,,,,,,,,,,,,66.9387776000076,66.9387776000076,66.9387776000076,66.9387776000076,66.9387776000076,66.9387776000076,2.0,1.2910511000081897,s,7.220716400013771,74.66066729999147,0.10015880002174526,0.10706880001816899,0.15568970004096627,0.1626362000242807,0.20428679999895394,0.2112362000043504,75.41758330003358,,,,,,,,,,,,,,,,,,,,,,,,,,,,,,,,,,,,,,,,,,,,,,,,,,,,,,,,,,,,,,,,,,,,,,,,,18,A,2023-12-11_12h11.51.461,gca_avoidance_task,2022.2.4,143.95697412031666,
,,,,,,,,,6,0,6,0,,,,,,,,,,,,,,,,,,,,,,,,,,,,,,,,,,,,,75.41758330003358,75.41758330003358,75.41758330003358,75.41758330003358,75.41758330003358,75.41758330003358,4.0,2.6693334999727085,s,7.5257392000057735,83.44505340000615,0.10378310002852231,0.11077200004365295,0.1523668000008911,0.1593605000525713,0.20103500003460795,0.2079838000354357,84.20195419999072,,,,,,,,,,,,,,,,,,,,,,,,,,,,,,,,,,,,,,,,,,,,,,,,,,,,,,,,,,,,,,,,,,,,,,,,,18,A,2023-12-11_12h11.51.461,gca_avoidance_task,2022.2.4,143.95697412031666,
,,,,,,,,,7,0,7,0,,,,,,,,,,,,,,,,,,,,,,,,,,,,,,,,,,,,,84.20195419999072,84.20195419999072,84.20195419999072,84.20195419999072,84.20195419999072,84.20195419999072,4.0,3.5602204000460915,s,8.33359409996774,93.06965840002522,0.10223199997562915,0.10917759995209053,0.1508493999717757,0.15775199997005984,0.19942449999507517,0.20638119999784976,93.82660170004237,,,,,,,,,,,,,,,,,,,,,,,,,,,,,,,,,,,,,,,,,,,,,,,,,,,,,,,,,,,,,,,,,,,,,,,,,18,A,2023-12-11_12h11.51.461,gca_avoidance_task,2022.2.4,143.95697412031666,
,,,,,,,,,8,0,8,0,,,,,,,,,,,,,,,,,,,,,,,,,,,,,,,,,,,,,93.82660170004237,93.82660170004237,93.82660170004237,93.82660170004237,93.82660170004237,93.82660170004237,5.0,1.2635722999693826,s,6.717285999970045,101.05542079999577,0.10195660003228113,0.10891010001068935,0.1505967000266537,0.157571799994912,0.19916570000350475,0.20613579999189824,101.80544640001608,,,,,,,,,,,,,,,,,,,,,,,,,,,,,,,,,,,,,,,,,,,,,,,,,,,,,,,,,,,,,,,,,,,,,,,,,18,A,2023-12-11_12h11.51.461,gca_avoidance_task,2022.2.4,143.95697412031666,
,,,,,,,,,9,0,9,0,,,,,,,,,,,,,,,,,,,,,,,,,,,,,,,,,,,,,101.80544640001608,101.80544640001608,101.80544640001608,101.80544640001608,101.80544640001608,101.80544640001608,5.0,2.157116699963808,s,6.881745900027454,109.18706790002761,0.10366959997918457,0.11062349996063858,0.15227580000646412,0.15923829999519512,0.20088249997934327,0.20783829997526482,110.02732580003794,,,,,,,,,,,,,,,,,,,,,,,,,,,,,,,,,,,,,,,,,,,,,,,,,,,,,,,,,,,,,,,,,,,,,,,,,18,A,2023-12-11_12h11.51.461,gca_avoidance_task,2022.2.4,143.95697412031666,
,,,,,,,,,10,0,10,0,,,,,,,,,,,,,,,,,,,,,,,,,,,,,,,,,,,,,110.02732580003794,110.02732580003794,110.02732580003794,110.02732580003794,110.02732580003794,110.02732580003794,6.0,1.5912530000205152,s,6.443684500001837,116.9645483000204,0.09988630004227161,0.10684770002262667,0.15543380001327023,0.16243950003990903,0.20407979999436066,0.2110553000238724,117.72146460000658,,,,,,,,,,,,,,,,,,,,,,,,,,,,,,,,,,,,,,,,,,,,,,,,,,,,,,,,,,,,,,,,,,,,,,,,,18,A,2023-12-11_12h11.51.461,gca_avoidance_task,2022.2.4,143.95697412031666,
,,,,,,,,,11,0,11,0,,,,,,,,,,,,,,,,,,,,,,,,,,,,,,,,,,,,,117.72146460000658,117.72146460000658,117.72146460000658,117.72146460000658,117.72146460000658,117.72146460000658,3.0,1.499112299992703,s,8.085753299994394,126.31832900003064,0.09961789997760206,0.10657730000093579,0.15519669995410368,0.16211529995780438,0.2037502999883145,0.21070279995910823,127.07519800000591,,,,,,,,,,,,,,,,,,,,,,,,,,,,,,,,,,,,,,,,,,,,,,,,,,,,,,,,,,,,,,,,,,,,,,,,,18,A,2023-12-11_12h11.51.461,gca_avoidance_task,2022.2.4,143.95697412031666,
,,,,,,,,,12,0,12,0,,,,,,,,,,,,,,,,,,,,,,,,,,,,,,,,,,,,,127.07519800000591,127.07519800000591,127.07519800000591,127.07519800000591,127.07519800000591,127.07519800000591,4.0,3.755344300006982,s,9.548223999969196,137.13734910002677,0.10205889999633655,0.10905569995520636,0.15068629995221272,0.15765129995997995,0.19925949996104464,0.20622329995967448,137.8873045000364,,,,,,,,,,,,,,,,,,,,,,,,,,,,,,,,,,,,,,,,,,,,,,,,,,,,,,,,,,,,,,,,,,,,,,,,,18,A,2023-12-11_12h11.51.461,gca_avoidance_task,2022.2.4,143.95697412031666,
,,,,,,,,,13,0,13,0,,,,,,,,,,,,,,,,,,,,,,,,,,,,,,,,,,,,,137.8873045000364,137.8873045000364,137.8873045000364,137.8873045000364,137.8873045000364,137.8873045000364,4.0,1.4679066000389867,s,5.735926699999254,144.1301272000419,0.10072339995531365,0.1076623999979347,0.14928319997852668,0.1562549999798648,0.20489589998032898,0.2118433999712579,144.8870432000258,,,,,,,,,,,,,,,,,,,,,,,,,,,,,,,,,,,,,,,,,,,,,,,,,,,,,,,,,,,,,,,,,,,,,,,,,18,A,2023-12-11_12h11.51.461,gca_avoidance_task,2022.2.4,143.95697412031666,
,,,,,,,,,14,0,14,0,,,,,,,,,,,,,,,,,,,,,,,,,,,,,,,,,,,,,144.8870432000258,144.8870432000258,144.8870432000258,144.8870432000258,144.8870432000258,144.8870432000258,6.0,3.1499216000083834,s,8.784117500006687,154.18526320002275,0.10525800002506003,0.11222780001116917,0.1538602000218816,0.16080980002880096,0.20246450003469363,0.20941880001919344,,,,,,,,,,,,,,,,,,,,,,,,,,,,,,,,,,,,,,,,,,,,,,,,,,,,,,,,,,,,,,,,,,,,,,,,,,18,A,2023-12-11_12h11.51.461,gca_avoidance_task,2022.2.4,143.95697412031666,
,,,,,,,,,15,0,15,0,,,,,,,,,,,,,,,,,,,,,,,,,,,,,,,,,,,,,155.06024449999677,155.06024449999677,155.06024449999677,155.06024449999677,155.06024449999677,155.06024449999677,5.0,2.0960636000381783,s,7.899226300010923,163.46270790003473,0.1059186999918893,0.11286359996302053,0.15447770000901073,0.16148539999267086,0.2030817999620922,0.21007679996546358,164.24738340004114,,,,,,,,,,,,,,,,,,,,,,,,,,,,,,,,,,,,,,,,,,,,,,,,,,,,,,,,,,,,,,,,,,,,,,,,,18,A,2023-12-11_12h11.51.461,gca_avoidance_task,2022.2.4,143.95697412031666,
,,,,,,,,,16,0,16,0,,,,,,,,,,,,,,,,,,,,,,,,,,,,,,,,,,,,,164.24738340004114,164.24738340004114,164.24738340004114,164.24738340004114,164.24738340004114,164.24738340004114,6.0,2.606064499996137,s,8.063939100014977,172.81645909999497,0.1041069999919273,0.11105469998437911,0.15274199994746596,0.15966399997705594,0.2013208999997005,0.2082767999963835,173.56646830000682,,,,,,,,,,,,,,,,,,,,,,,,,,,,,,,,,,,,,,,,,,,,,,,,,,,,,,,,,,,,,,,,,,,,,,,,,18,A,2023-12-11_12h11.51.461,gca_avoidance_task,2022.2.4,143.95697412031666,
,,,,,,,,,17,0,17,0,,,,,,,,,,,,,,,,,,,,,,,,,,,,,,,,,,,,,173.56646830000682,173.56646830000682,173.56646830000682,173.56646830000682,173.56646830000682,173.56646830000682,5.0,1.5742468999815173,s,7.432427300023846,181.51057630003197,0.10593479999806732,0.11288359999889508,0.15460240002721548,0.16153740003937855,0.20317150000482798,0.21017450001090765,182.26748360000784,,,,,,,,,,,,,,,,,,,,,,,,,,,,,,,,,,,,,,,,,,,,,,,,,,,,,,,,,,,,,,,,,,,,,,,,,18,A,2023-12-11_12h11.51.461,gca_avoidance_task,2022.2.4,143.95697412031666,
,,,,,,,,,18,0,18,0,,,,,,,,,,,,,,,,,,,,,,,,,,,,,,,,,,,,,182.26748360000784,182.26748360000784,182.26748360000784,182.26748360000784,182.26748360000784,182.26748360000784,7.0,1.568522399989888,s,8.404176499985624,191.18377450003754,0.10192539996933192,0.10890749999089167,0.1505538999917917,0.15753669996047392,0.19914639997296035,0.20613179996144027,191.940740799997,,,,,,,,,,,,,,,,,,,,,,,,,,,,,,,,,,,,,,,,,,,,,,,,,,,,,,,,,,,,,,,,,,,,,,,,,18,A,2023-12-11_12h11.51.461,gca_avoidance_task,2022.2.4,143.95697412031666,
,,,,,,,,,19,0,19,0,,,,,,,,,,,,,,,,,,,,,,,,,,,,,,,,,,,,,191.940740799997,191.940740799997,191.940740799997,191.940740799997,191.940740799997,191.940740799997,6.0,2.3161825999850407,g,12.922722199989948,205.38460640003905,,,,,,,,,,,,,,,,,,,,,,,,,,,,,,,,,,,,,,,,,,,,,,,,,,,,,,,,,,,,,,,,,,,,,,,,,,,,,,,,18,A,2023-12-11_12h11.51.461,gca_avoidance_task,2022.2.4,143.95697412031666,
,,,,,,,,,,,,,,,,,,,,,,,,,,,,,,,,,,,,,,,,,,,,,,,,,,,,,,,,,,,,,,,,,,,205.38460640003905,205.38460640003905,space,2.0144887000205927,,,,,,,,,,,,,,,,,,,,,,,,,,,,,,,,,,,,,,,,,,,,,,,,,,,,,,,,,,,,,,,,,,,,,18,A,2023-12-11_12h11.51.461,gca_avoidance_task,2022.2.4,143.95697412031666,
positions.xlsx,stimuli.xlsx,stimuli/Social1.png,stimuli/Social2.png,stimuli/Nonsocial1.png,stimuli/Nonsocial2.png,cs_minus_ns,,,,,,,0,0,0,0,0,0,0,3,,,,,,,,,,,,,,,,,,,,,,,,,,,,,,,,,,,,,,,,,,,,,,,,,,,270.79629020002903,270.79629020002903,space,24.458544399996754,295.30463490000693,295.30463490000693,303.92235330003314,8.0,8.618730699992739,space,0.2849436999531463,,,,,,,,,,,,,,,,,,,,,,,,,,,,,,,,,,,,,,,,,,,,,,,,,,,,,,,,,,18,A,2023-12-11_12h11.51.461,gca_avoidance_task,2022.2.4,143.95697412031666,
positions.xlsx,stimuli.xlsx,stimuli/Social1.png,stimuli/Social2.png,stimuli/Nonsocial1.png,stimuli/Nonsocial2.png,cs_minus_s,,,,,,,0,0,0,0,0,1,1,2,,,,,,,,,,,,,,,,,,,,,,,,,,,,,,,,,,,,,,,,,,,,,,,,,,,,,,,304.24175220000325,304.24175220000325,309.2762586000026,6.0,6.173422599968035,space,1.9876082999981008,,,,,,,,,,,,,,,,,,,,,,,,,,,,,,,,,,,,,,,,,,,,,,,,,,,,,,,,,,18,A,2023-12-11_12h11.51.461,gca_avoidance_task,2022.2.4,143.95697412031666,
positions.xlsx,stimuli.xlsx,stimuli/Social1.png,stimuli/Social2.png,stimuli/Nonsocial1.png,stimuli/Nonsocial2.png,cs_plus_s,,,,,,,0,0,0,0,0,2,2,0,,,,,,,,,,,,,,,,,,,,,,,,,,,,,,,,,,,,,,,,,,,,,,,,,,,,,,,311.3040079000057,311.3040079000057,314.28301390004344,7.0,2.971969000005629,space,0.3723273000214249,,,,,,,,,,,,,,,,,,,,,,,,,,,,,,,,,,,,,,,,,,,,,,,,,,,,,,,,,,18,A,2023-12-11_12h11.51.461,gca_avoidance_task,2022.2.4,143.95697412031666,
positions.xlsx,stimuli.xlsx,stimuli/Social1.png,stimuli/Social2.png,stimuli/Nonsocial1.png,stimuli/Nonsocial2.png,cs_plus_ns,,,,,,,0,0,0,0,0,3,3,1,,,,,,,,,,,,,,,,,,,,,,,,,,,,,,,,,,,,,,,,,,,,,,,,,,,,,,,314.68576950003626,314.68576950003626,317.2690084000351,7.0,2.5754782000440173,space,0.2662626000237651,,,,,,,,,,,,,,,,,,,,,,,,,,,,,,,,,,,,,,,,,,,,,,,,,,,,,,,,,,18,A,2023-12-11_12h11.51.461,gca_avoidance_task,2022.2.4,143.95697412031666,
positions.xlsx,stimuli.xlsx,stimuli/Social1.png,stimuli/Social2.png,stimuli/Nonsocial1.png,stimuli/Nonsocial2.png,,"(0.7, -0.5)",cs_minus_ns,,,,,0,0,0,0,,,,,0,0,0,15,,,,,,,,,,,,,,,,,,,,,,,,,,,,,,,,,,,,,,,,,,,,,,,,,,,,,,,,,,317.5537744000321,317.5537744000321,space,22.310229399998207,342.35827870003413,344.03184060001513,341.8583426999976,344.03184060001513,344.03184060001513,344.03184060001513,0.016040099959354848,0.027238199952989817,5,reward,1,[0.26417129999026656],[0.264175099960994],344.3026430000318,344.3026430000318,0.016880500013940036,0.016880500013940036,0.03175850003026426,0.05255900003248826,0.05951650004135445,0.10112970002228394,0.10810630000196397,1.010801199998241,347.78167990001384,352.031514900038,,,,,,,,,,,,,,,,,,,,,,,,,,,,,18,A,2023-12-11_12h11.51.461,gca_avoidance_task,2022.2.4,143.95697412031666,
positions.xlsx,stimuli.xlsx,stimuli/Social1.png,stimuli/Social2.png,stimuli/Nonsocial1.png,stimuli/Nonsocial2.png,,"(0.7, 0.5)",cs_plus_ns,,,,,0,0,0,0,,,,,0,1,1,10,,,,,,,,,,,,,,,,,,,,,,,,,,,,,,,,,,,,,,,,,,,,,,,,,,,,,,,,,,,,,,352.5384299000143,354.49669150001137,352.031514900038,354.49669150001137,354.49669150001137,354.49669150001137,0.0073009999468922615,0.013315299991518259,5,shock,1,[0.25726309994934127],[0.25726689997827634],354.76061440003105,354.76061440003105,0.00867200002539903,0.00867200002539903,0.01834670000243932,0.05296460003592074,0.059995200019329786,0.10160160000668839,0.10853329999372363,1.0043787999893539,358.2535462999949,362.4825362000265,,,,,,,,,,,,,,,,,,,,,,,,,,,,,18,A,2023-12-11_12h11.51.461,gca_avoidance_task,2022.2.4,143.95697412031666,
positions.xlsx,stimuli.xlsx,stimuli/Social1.png,stimuli/Social2.png,stimuli/Nonsocial1.png,stimuli/Nonsocial2.png,,"(0.7, -0.5)",cs_minus_s,,,,,0,0,0,0,,,,,0,2,2,7,,,,,,,,,,,,,,,,,,,,,,,,,,,,,,,,,,,,,,,,,,,,,,,,,,,,,,,,,,,,,,362.9894048999995,364.12130060000345,362.4825362000265,364.12130060000345,364.12130060000345,364.12130060000345,0.0071773999952711165,0.013225200003944337,10,reward,1,[0.2711183999781497],[0.27112220000708476],364.3990948999999,364.3990948999999,0.007538300007581711,0.007538300007581711,0.018544299993664026,0.05316410004161298,0.06017370003974065,0.10179010004503652,0.10871110000880435,1.004554100043606,367.8920335000148,372.3571065000142,,,,,,,,,,,,,,,,,,,,,,,,,,,,,18,A,2023-12-11_12h11.51.461,gca_avoidance_task,2022.2.4,143.95697412031666,
positions.xlsx,stimuli.xlsx,stimuli/Social1.png,stimuli/Social2.png,stimuli/Nonsocial1.png,stimuli/Nonsocial2.png,,"(-0.7, 0.5)",cs_minus_s,,,,,0,0,0,0,,,,,0,3,3,4,,,,,,,,,,,,,,,,,,,,,,,,,,,,,,,,,,,,,,,,,,,,,,,,,,,,,,,,,,,,,,372.86401429999387,373.968164800026,372.3571065000142,373.968164800026,373.968164800026,373.968164800026,0.00609829998575151,0.013151899969670922,15,reward,1,[0.2502115999814123],[0.25723290001042187],374.23205019999295,374.23205019999295,0.007016999996267259,0.007016999996267259,0.017994599998928607,0.05266799998935312,0.05964980000862852,0.10127959999954328,0.10821199999190867,1.0039899999974295,377.724927800009,382.05121579999104,,,,,,,,,,,,,,,,,,,,,,,,,,,,,18,A,2023-12-11_12h11.51.461,gca_avoidance_task,2022.2.4,143.95697412031666,
positions.xlsx,stimuli.xlsx,stimuli/Social1.png,stimuli/Social2.png,stimuli/Nonsocial1.png,stimuli/Nonsocial2.png,,"(-0.7, 0.5)",cs_plus_ns,,,,,0,0,0,0,,,,,0,4,4,8,,,,,,,,,,,,,,,,,,,,,,,,,,,,,,,,,,,,,,,,,,,,,,,,,,,,,,,,,,,,,,382.5580587000004,384.25243140000384,382.05121579999104,384.25243140000384,384.25243140000384,384.25243140000384,0.0061784000135958195,0.013047299988102168,15,shock,1,[0.2643326999968849],[0.2643363000242971],384.523267200042,384.523267200042,0.008734399976674467,0.008734399976674467,0.017700199969112873,0.05239789996994659,0.05938229995081201,0.10098689998267218,0.10796170000685379,1.0037385000032373,388.01625620003324,391.99522889999207,,,,,,,,,,,,,,,,,,,,,,,,,,,,,18,A,2023-12-11_12h11.51.461,gca_avoidance_task,2022.2.4,143.95697412031666,
positions.xlsx,stimuli.xlsx,stimuli/Social1.png,stimuli/Social2.png,stimuli/Nonsocial1.png,stimuli/Nonsocial2.png,,"(0.7, 0.5)",cs_minus_ns,,,,,0,0,0,0,,,,,0,5,5,14,,,,,,,,,,,,,,,,,,,,,,,,,,,,,,,,,,,,,,,,,,,,,,,,,,,,,,,,,,,,,,392.5021066000336,394.0922758000088,391.99522889999207,394.0922758000088,394.0922758000088,394.0922758000088,0.0072521999827586114,0.01288089994341135,20,reward,1,[0.26367629994638264],[0.2636802999768406],394.36314480000874,394.36314480000874,0.007451199984643608,0.007451199984643608,0.018513499991968274,0.053191800019703805,0.06011130003025755,0.10180270002456382,0.10872439999366179,1.0044803000055254,397.8560918000294,402.00873190001585,,,,,,,,,,,,,,,,,,,,,,,,,,,,,18,A,2023-12-11_12h11.51.461,gca_avoidance_task,2022.2.4,143.95697412031666,
positions.xlsx,stimuli.xlsx,stimuli/Social1.png,stimuli/Social2.png,stimuli/Nonsocial1.png,stimuli/Nonsocial2.png,,"(0.7, -0.5)",cs_plus_s,,,,,0,0,0,0,,,,,0,6,6,3,,,,,,,,,,,,,,,,,,,,,,,,,,,,,,,,,,,,,,,,,,,,,,,,,,,,,,,,,,,,,,402.51560760004213,404.1266418999876,402.00873190001585,404.1266418999876,404.1266418999876,404.1266418999876,0.006304399983491749,0.013448899961076677,20,shock,1,[0.27822589996503666],[0.28503839997574687],404.4183009000262,404.4183009000262,0.007145000039599836,0.007145000039599836,0.018624500022269785,0.05332480004290119,0.06029220001073554,0.10193050000816584,0.10892050003167242,1.0046563000069,407.911209300044,411.95274020003853,,,,,,,,,,,,,,,,,,,,,,,,,,,,,18,A,2023-12-11_12h11.51.461,gca_avoidance_task,2022.2.4,143.95697412031666,
positions.xlsx,stimuli.xlsx,stimuli/Social1.png,stimuli/Social2.png,stimuli/Nonsocial1.png,stimuli/Nonsocial2.png,,"(-0.7, -0.5)",cs_minus_ns,,,,,0,0,0,0,,,,,0,7,7,13,,,,,,,,,,,,,,,,,,,,,,,,,,,,,,,,,,,,,,,,,,,,,,,,,,,,,,,,,,,,,,412.45965929998783,413.4804135999875,411.95274020003853,413.4804135999875,413.4804135999875,413.4804135999875,0.0061989999958314,0.013371700013522059,25,reward,1,[0.2156521999859251],[0.21565560001181439],413.70271020004293,413.70271020004293,0.007960200018715113,0.007960200018715113,0.018242200021632016,0.05289789999369532,0.05982389999553561,0.10150940000312403,0.10846190003212541,1.0041980000096373,417.1956201000139,421.19542830000864,,,,,,,,,,,,,,,,,,,,,,,,,,,,,18,A,2023-12-11_12h11.51.461,gca_avoidance_task,2022.2.4,143.95697412031666,
positions.xlsx,stimuli.xlsx,stimuli/Social1.png,stimuli/Social2.png,stimuli/Nonsocial1.png,stimuli/Nonsocial2.png,,"(0.7, -0.5)",cs_plus_ns,,,,,0,0,0,0,,,,,0,8,8,11,,,,,,,,,,,,,,,,,,,,,,,,,,,,,,,,,,,,,,,,,,,,,,,,,,,,,,,,,,,,,,421.7023220999981,423.646702500002,421.19542830000864,423.646702500002,423.646702500002,423.646702500002,0.007309800013899803,0.013066100014839321,25,shock,1,[0.2709292999934405],[0.2709329000208527],423.92444199998863,423.92444199998863,0.008081000007223338,0.008081000007223338,0.018328499980270863,0.05302170000504702,0.059935999976005405,0.10164509998867288,0.1085616999771446,1.0043062000186183,427.4174674000242,431.0144903000328,,,,,,,,,,,,,,,,,,,,,,,,,,,,,18,A,2023-12-11_12h11.51.461,gca_avoidance_task,2022.2.4,143.95697412031666,
positions.xlsx,stimuli.xlsx,stimuli/Social1.png,stimuli/Social2.png,stimuli/Nonsocial1.png,stimuli/Nonsocial2.png,,"(0.7, 0.5)",cs_minus_s,,,,,0,0,0,0,,,,,0,9,9,6,,,,,,,,,,,,,,,,,,,,,,,,,,,,,,,,,,,,,,,,,,,,,,,,,,,,,,,,,,,,,,431.5214044000022,433.3893631999963,431.0144903000328,433.3893631999963,433.3893631999963,433.3893631999963,0.006074999982956797,0.013504499976988882,30,reward,1,[0.25050750002264977],[0.2574563999660313],433.6532583000371,433.6532583000371,0.007384099997580051,0.007384099997580051,0.01816760003566742,0.052854100009426475,0.05979070003377274,0.1013954000081867,0.10836620000191033,1.004197700007353,437.146236200002,441.5695795000065,,,,,,,,,,,,,,,,,,,,,,,,,,,,,18,A,2023-12-11_12h11.51.461,gca_avoidance_task,2022.2.4,143.95697412031666,
positions.xlsx,stimuli.xlsx,stimuli/Social1.png,stimuli/Social2.png,stimuli/Nonsocial1.png,stimuli/Nonsocial2.png,,"(0.7, 0.5)",cs_plus_s,,,,,0,0,0,0,,,,,0,10,10,2,,,,,,,,,,,,,,,,,,,,,,,,,,,,,,,,,,,,,,,,,,,,,,,,,,,,,,,,,,,,,,442.0765085000312,443.80566050001653,441.5695795000065,443.80566050001653,443.80566050001653,443.80566050001653,0.005940800008829683,0.013511200028005987,30,shock,1,[0.23656310001388192],[0.23656649998156354],444.0486799000064,444.0486799000064,0.007878599979449064,0.007878599979449064,0.018621199997141957,0.05331270000897348,0.06024600000819191,0.10188889998244122,0.10886380000738427,1.004680800018832,447.5416230999981,451.08313620003173,,,,,,,,,,,,,,,,,,,,,,,,,,,,,18,A,2023-12-11_12h11.51.461,gca_avoidance_task,2022.2.4,143.95697412031666,
positions.xlsx,stimuli.xlsx,stimuli/Social1.png,stimuli/Social2.png,stimuli/Nonsocial1.png,stimuli/Nonsocial2.png,,"(-0.7, -0.5)",cs_plus_s,,,,,0,0,0,0,,,,,0,11,11,1,,,,,,,,,,,,,,,,,,,,,,,,,,,,,,,,,,,,,,,,,,,,,,,,,,,,,,,,,,,,,,451.5900065000169,453.4024733999977,451.08313620003173,453.4024733999977,453.4024733999977,453.4024733999977,0.006598000007215887,0.01304539997363463,30,shock,1,[0.47228719998383895],[0.4722907000104897],453.87468890001765,453.87468890001765,0.0072746999794617295,0.0072746999794617295,0.011699499969836324,0.05331370001658797,0.06024899997282773,0.1018408999661915,0.10886999999638647,1.0046545999939553,457.37455180002144,461.85355719999643,,,,,,,,,,,,,,,,,,,,,,,,,,,,,18,A,2023-12-11_12h11.51.461,gca_avoidance_task,2022.2.4,143.95697412031666,
positions.xlsx,stimuli.xlsx,stimuli/Social1.png,stimuli/Social2.png,stimuli/Nonsocial1.png,stimuli/Nonsocial2.png,,"(-0.7, -0.5)",cs_minus_s,,,,,0,0,0,0,,,,,0,12,12,5,,,,,,,,,,,,,,,,,,,,,,,,,,,,,,,,,,,,,,,,,,,,,,,,,,,,,,,,,,,,,,462.3604399000178,463.9367236000253,461.85355719999643,463.9367236000253,463.9367236000253,463.9367236000253,0.006181099975947291,0.013176799984648824,35,reward,1,[0.1808966000098735],[0.18090059998212382],464.1242596000084,464.1242596000084,0.0069475999916903675,0.0069475999916903675,0.0180460000410676,0.05275949998758733,0.05972489999840036,0.1013647000072524,0.10831139999208972,1.004094400035683,467.61724870000035,472.01979890000075,,,,,,,,,,,,,,,,,,,,,,,,,,,,,18,A,2023-12-11_12h11.51.461,gca_avoidance_task,2022.2.4,143.95697412031666,
positions.xlsx,stimuli.xlsx,stimuli/Social1.png,stimuli/Social2.png,stimuli/Nonsocial1.png,stimuli/Nonsocial2.png,,"(-0.7, 0.5)",cs_minus_ns,,,,,0,0,0,0,,,,,0,13,13,12,,,,,,,,,,,,,,,,,,,,,,,,,,,,,,,,,,,,,,,,,,,,,,,,,,,,,,,,,,,,,,472.5266486000037,473.7488632000168,472.01979890000075,473.7488632000168,473.7488632000168,473.7488632000168,0.006244099989999086,0.013465599971823394,40,reward,1,[0.24348629999440163],[0.24348989996360615],473.99889410001924,473.99889410001924,0.007196700025815517,0.007196700025815517,0.01843270001700148,0.053125100035686046,0.06004370003938675,0.1017174000153318,0.10866580001311377,1.0044434000155888,477.4918320000288,481.9846789999865,,,,,,,,,,,,,,,,,,,,,,,,,,,,,18,A,2023-12-11_12h11.51.461,gca_avoidance_task,2022.2.4,143.95697412031666,
positions.xlsx,stimuli.xlsx,stimuli/Social1.png,stimuli/Social2.png,stimuli/Nonsocial1.png,stimuli/Nonsocial2.png,,"(-0.7, -0.5)",cs_plus_ns,,,,,0,0,0,0,,,,,0,14,14,9,,,,,,,,,,,,,,,,,,,,,,,,,,,,,,,,,,,,,,,,,,,,,,,,,,,,,,,,,,,,,,482.49156390002463,484.27623469999526,481.9846789999865,484.27623469999526,484.27623469999526,484.27623469999526,0.00664650002727285,0.013074000016786158,40,shock,1,[0.18069890001788735],[0.18070290004834533],484.4637023000396,484.4637023000396,0.00833849998889491,0.00833849998889491,0.01840449997689575,0.0531230999622494,0.06007649999810383,0.1017305999994278,0.10863899998366833,1.0044348000083119,487.95664739998756,491.7620957000181,,,,,,,,,,,,,,,,,,,,,,,,,,,,,18,A,2023-12-11_12h11.51.461,gca_avoidance_task,2022.2.4,143.95697412031666,
positions.xlsx,stimuli.xlsx,stimuli/Social1.png,stimuli/Social2.png,stimuli/Nonsocial1.png,stimuli/Nonsocial2.png,,"(-0.7, 0.5)",cs_plus_s,,,,,0,0,0,0,,,,,0,15,15,0,,,,,,,,,,,,,,,,,,,,,,,,,,,,,,,,,,,,,,,,,,,,,,,,,,,,,,,,,,,,,,492.26895230001537,494.1091754999943,491.7620957000181,494.1091754999943,494.1091754999943,494.1091754999943,0.006349899980705231,0.013127800018992275,40,shock,1,[0.2570113000110723],[0.2570150999817997],494.373017200036,494.373017200036,0.008150200010277331,0.008150200010277331,0.01847089995862916,0.05315349996089935,0.060090099985245615,0.10174499999266118,0.10869459999958053,1.0045026000007056,497.86596080003073,502.0672295000404,,,,,,,,,,,,,,,,,,,,,,,,,,,,,18,A,2023-12-11_12h11.51.461,gca_avoidance_task,2022.2.4,143.95697412031666,
positions.xlsx,stimuli.xlsx,stimuli/Social1.png,stimuli/Social2.png,stimuli/Nonsocial1.png,stimuli/Nonsocial2.png,,"(-0.7, 0.5)",cs_plus_ns,,,,,0,0,0,0,,,,,1,0,16,8,,,,,,,,,,,,,,,,,,,,,,,,,,,,,,,,,,,,,,,,,,,,,,,,,,,,,,,,,,,,,,502.5740943000419,503.88654710003175,502.0672295000404,503.88654710003175,503.88654710003175,503.88654710003175,0.006784800032619387,0.013401600008364767,40,shock,1,[0.20168200001353398],[0.20168569998349994],504.0949118999997,504.0949118999997,0.00824509997619316,0.00824509997619316,0.019026099995244294,0.053643600025679916,0.06059619999723509,0.10221059998730198,0.10919970000395551,1.004983099992387,507.5878037000075,511.726554199995,,,,,,,,,,,,,,,,,,,,,,,,,,,,,18,A,2023-12-11_12h11.51.461,gca_avoidance_task,2022.2.4,143.95697412031666,
positions.xlsx,stimuli.xlsx,stimuli/Social1.png,stimuli/Social2.png,stimuli/Nonsocial1.png,stimuli/Nonsocial2.png,,"(0.7, 0.5)",cs_minus_ns,,,,,0,0,0,0,,,,,1,1,17,14,,,,,,,,,,,,,,,,,,,,,,,,,,,,,,,,,,,,,,,,,,,,,,,,,,,,,,,,,,,,,,512.2334556000424,514.1570286999922,511.726554199995,514.1570286999922,514.1570286999922,514.1570286999922,0.007414199993945658,0.013208099990151823,45,reward,1,[0.19452719995751977],[0.1945308999856934],514.3583802999929,514.3583802999929,0.008416299999225885,0.008416299999225885,0.01890959998127073,0.05352409998886287,0.06051639997167513,0.10214089998044074,0.10910449997754768,1.004897599981632,517.8512752000242,522.1428080000333,,,,,,,,,,,,,,,,,,,,,,,,,,,,,18,A,2023-12-11_12h11.51.461,gca_avoidance_task,2022.2.4,143.95697412031666,
positions.xlsx,stimuli.xlsx,stimuli/Social1.png,stimuli/Social2.png,stimuli/Nonsocial1.png,stimuli/Nonsocial2.png,,"(0.7, -0.5)",cs_plus_ns,,,,,0,0,0,0,,,,,1,2,18,11,,,,,,,,,,,,,,,,,,,,,,,,,,,,,,,,,,,,,,,,,,,,,,,,,,,,,,,,,,,,,,522.6496811000397,524.5037816000404,522.1428080000333,524.5037816000404,524.5037816000404,524.5037816000404,0.006652999960351735,0.013362999947275966,45,shock,1,[0.271111199981533],[0.27111469994997606],524.7815593000269,524.7815593000269,0.008458300027996302,0.008458300027996302,0.018734300043433905,0.05339430004823953,0.060346600017510355,0.10200790001545101,0.10897770000156015,1.004802200011909,528.2745013000094,532.4688096999889,,,,,,,,,,,,,,,,,,,,,,,,,,,,,18,A,2023-12-11_12h11.51.461,gca_avoidance_task,2022.2.4,143.95697412031666,
positions.xlsx,stimuli.xlsx,stimuli/Social1.png,stimuli/Social2.png,stimuli/Nonsocial1.png,stimuli/Nonsocial2.png,,"(0.7, 0.5)",cs_minus_s,,,,,0,0,0,0,,,,,1,3,19,6,,,,,,,,,,,,,,,,,,,,,,,,,,,,,,,,,,,,,,,,,,,,,,,,,,,,,,,,,,,,,,532.9756668999908,534.8506114000338,532.4688096999889,534.8506114000338,534.8506114000338,534.8506114000338,0.00578130001667887,0.013004600012209266,50,reward,1,[0.25701679999474436],[0.25702040002215654],535.1144826000091,535.1144826000091,0.0076392000191845,0.0076392000191845,0.018310600018594414,0.05294660001527518,0.0599313999991864,0.1016813000314869,0.108549700002186,1.0042836000211537,538.6074582000147,542.7600466000149,,,,,,,,,,,,,,,,,,,,,,,,,,,,,18,A,2023-12-11_12h11.51.461,gca_avoidance_task,2022.2.4,143.95697412031666,
positions.xlsx,stimuli.xlsx,stimuli/Social1.png,stimuli/Social2.png,stimuli/Nonsocial1.png,stimuli/Nonsocial2.png,,"(0.7, 0.5)",cs_plus_s,,,,,0,0,0,0,,,,,1,4,20,2,,,,,,,,,,,,,,,,,,,,,,,,,,,,,,,,,,,,,,,,,,,,,,,,,,,,,,,,,,,,,,543.2669188000145,545.134947100014,542.7600466000149,545.134947100014,545.134947100014,545.134947100014,0.006231200008187443,0.013265300018247217,50,shock,1,[0.2292367999907583],[0.22924020001664758],545.3710073000402,545.3710073000402,0.0068567999987863,0.0068567999987863,0.018683700007386506,0.05341170000610873,0.06032769999001175,0.10197050002170727,0.10892670002067462,1.0047100000083447,548.8639265000238,552.981856700033,,,,,,,,,,,,,,,,,,,,,,,,,,,,,18,A,2023-12-11_12h11.51.461,gca_avoidance_task,2022.2.4,143.95697412031666,
positions.xlsx,stimuli.xlsx,stimuli/Social1.png,stimuli/Social2.png,stimuli/Nonsocial1.png,stimuli/Nonsocial2.png,,"(0.7, -0.5)",cs_plus_s,,,,,0,0,0,0,,,,,1,5,21,3,,,,,,,,,,,,,,,,,,,,,,,,,,,,,,,,,,,,,,,,,,,,,,,,,,,,,,,,,,,,,,553.4887405000045,555.231715700007,552.981856700033,555.231715700007,555.231715700007,555.231715700007,0.0059634000062942505,0.013227400020696223,50,shock,1,[0.25035360001493245],[0.2503695000195876],555.4886565000052,555.4886565000052,0.008145800034981221,0.008145800034981221,0.018688499985728413,0.05329070001607761,0.06021100003272295,0.1019040000392124,0.10883780004223809,1.0046434000250883,558.9816155000008,563.4328236000147,,,,,,,,,,,,,,,,,,,,,,,,,,,,,18,A,2023-12-11_12h11.51.461,gca_avoidance_task,2022.2.4,143.95697412031666,
positions.xlsx,stimuli.xlsx,stimuli/Social1.png,stimuli/Social2.png,stimuli/Nonsocial1.png,stimuli/Nonsocial2.png,,"(-0.7, 0.5)",cs_minus_s,,,,,0,0,0,0,,,,,1,6,22,4,,,,,,,,,,,,,,,,,,,,,,,,,,,,,,,,,,,,,,,,,,,,,,,,,,,,,,,,,,,,,,563.9396988000371,565.3354824000271,563.4328236000147,565.3354824000271,565.3354824000271,565.3354824000271,0.006124800012912601,0.01316999999107793,55,reward,1,[0.2155365000362508],[0.21554010000545532],565.5576921000029,565.5576921000029,0.007623200013767928,0.007623200013767928,0.0183924000011757,0.05312450003111735,0.060064900026191026,0.10173980001127347,0.10871970001608133,1.004437500028871,569.05064890004,573.2866068999865,,,,,,,,,,,,,,,,,,,,,,,,,,,,,18,A,2023-12-11_12h11.51.461,gca_avoidance_task,2022.2.4,143.95697412031666,
positions.xlsx,stimuli.xlsx,stimuli/Social1.png,stimuli/Social2.png,stimuli/Nonsocial1.png,stimuli/Nonsocial2.png,,"(-0.7, 0.5)",cs_plus_s,,,,,0,0,0,0,,,,,1,7,23,0,,,,,,,,,,,,,,,,,,,,,,,,,,,,,,,,,,,,,,,,,,,,,,,,,,,,,,,,,,,,,,573.7934713000432,575.6059076000238,573.2866068999865,575.6059076000238,575.6059076000238,575.6059076000238,0.00589079997735098,0.01331670000217855,55,shock,1,[0.1947787000099197],[0.19478239997988567],575.8073382000439,575.8073382000439,0.00719620002200827,0.00719620002200827,0.01886980002745986,0.053465900011360645,0.06042400002479553,0.10207249998347834,0.10902510001324117,1.0048445999855176,579.3002376999939,583.7792232999927,,,,,,,,,,,,,,,,,,,,,,,,,,,,,18,A,2023-12-11_12h11.51.461,gca_avoidance_task,2022.2.4,143.95697412031666,
positions.xlsx,stimuli.xlsx,stimuli/Social1.png,stimuli/Social2.png,stimuli/Nonsocial1.png,stimuli/Nonsocial2.png,,"(-0.7, 0.5)",cs_minus_ns,,,,,0,0,0,0,,,,,1,8,24,12,,,,,,,,,,,,,,,,,,,,,,,,,,,,,,,,,,,,,,,,,,,,,,,,,,,,,,,,,,,,,,584.2861115999985,585.5777248000377,583.7792232999927,585.5777248000377,585.5777248000377,585.5777248000377,0.006262999959290028,0.013082699966616929,60,reward,1,[0.3474195000017062],[0.34742299997014925],585.9319167000358,585.9319167000358,0.0072669999790377915,0.0072669999790377915,0.01833779999287799,0.052975400001741946,0.05995319999055937,0.10167100001126528,0.10857769998256117,1.0043535999720916,589.4248366000247,593.4038541000336,,,,,,,,,,,,,,,,,,,,,,,,,,,,,18,A,2023-12-11_12h11.51.461,gca_avoidance_task,2022.2.4,143.95697412031666,
positions.xlsx,stimuli.xlsx,stimuli/Social1.png,stimuli/Social2.png,stimuli/Nonsocial1.png,stimuli/Nonsocial2.png,,"(0.7, 0.5)",cs_plus_ns,,,,,0,0,0,0,,,,,1,9,25,10,,,,,,,,,,,,,,,,,,,,,,,,,,,,,,,,,,,,,,,,,,,,,,,,,,,,,,,,,,,,,,593.9107084000134,595.0357065999997,593.4038541000336,595.0357065999997,595.0357065999997,595.0357065999997,0.006743600009940565,0.013176399981603026,60,shock,1,[0.27800390002084896],[0.2780076999915764],595.3204336999916,595.3204336999916,0.008143299957737327,0.008143299957737327,0.0184917000005953,0.053150199993979186,0.06012330000521615,0.10177429998293519,0.10876380000263453,1.0046029000077397,598.813389900024,602.4590429000091,,,,,,,,,,,,,,,,,,,,,,,,,,,,,18,A,2023-12-11_12h11.51.461,gca_avoidance_task,2022.2.4,143.95697412031666,
positions.xlsx,stimuli.xlsx,stimuli/Social1.png,stimuli/Social2.png,stimuli/Nonsocial1.png,stimuli/Nonsocial2.png,,"(-0.7, -0.5)",cs_plus_s,,,,,0,0,0,0,,,,,1,10,26,1,,,,,,,,,,,,,,,,,,,,,,,,,,,,,,,,,,,,,,,,,,,,,,,,,,,,,,,,,,,,,,602.9659261000343,604.6464071000228,602.4590429000091,604.6464071000228,604.6464071000228,604.6464071000228,0.0062210000469349325,0.01327809999929741,60,shock,1,[0.24342500005150214],[0.24342880002222955],604.896411099995,604.896411099995,0.008099099970422685,0.008099099970422685,0.018457299971487373,0.05308679997688159,0.06005799997365102,0.10175779997371137,0.10867119999602437,1.0044509999570437,608.3894096000004,612.8614331000135,,,,,,,,,,,,,,,,,,,,,,,,,,,,,18,A,2023-12-11_12h11.51.461,gca_avoidance_task,2022.2.4,143.95697412031666,
positions.xlsx,stimuli.xlsx,stimuli/Social1.png,stimuli/Social2.png,stimuli/Nonsocial1.png,stimuli/Nonsocial2.png,,"(0.7, -0.5)",cs_minus_ns,,,,,0,0,0,0,,,,,1,11,27,15,,,,,,,,,,,,,,,,,,,,,,,,,,,,,,,,,,,,,,,,,,,,,,,,,,,,,,,,,,,,,,613.3682822000119,615.2501576000359,612.8614331000135,615.2501576000359,615.2501576000359,615.2501576000359,0.007210200012195855,0.013326300017070025,65,reward,1,[0.22263019997626543],[0.22263390000443906],615.4793376000016,615.4793376000016,0.008807700010947883,0.008807700010947883,0.018470100010745227,0.053130900021642447,0.060096100030932575,0.10178450000239536,0.10871080000652,1.0044651000062004,618.9722398000304,623.1527098999941,,,,,,,,,,,,,,,,,,,,,,,,,,,,,18,A,2023-12-11_12h11.51.461,gca_avoidance_task,2022.2.4,143.95697412031666,
positions.xlsx,stimuli.xlsx,stimuli/Social1.png,stimuli/Social2.png,stimuli/Nonsocial1.png,stimuli/Nonsocial2.png,,"(0.7, -0.5)",cs_minus_s,,,,,0,0,0,0,,,,,1,12,28,7,,,,,,,,,,,,,,,,,,,,,,,,,,,,,,,,,,,,,,,,,,,,,,,,,,,,,,,,,,,,,,623.6595359999919,625.437283300038,623.1527098999941,625.437283300038,625.437283300038,625.437283300038,0.0056007999810390174,0.013203699956648052,70,reward,1,[0.2224904999602586],[0.22249449999071658],625.66645780002,625.66645780002,0.007883000012952834,0.007883000012952834,0.018532700021751225,0.0531986000132747,0.06015650002518669,0.10185300000011921,0.10879880003631115,1.0045460000401363,629.1594088000129,633.2286452000262,,,,,,,,,,,,,,,,,,,,,,,,,,,,,18,A,2023-12-11_12h11.51.461,gca_avoidance_task,2022.2.4,143.95697412031666,
positions.xlsx,stimuli.xlsx,stimuli/Social1.png,stimuli/Social2.png,stimuli/Nonsocial1.png,stimuli/Nonsocial2.png,,"(-0.7, -0.5)",cs_plus_ns,,,,,0,0,0,0,,,,,1,13,29,9,,,,,,,,,,,,,,,,,,,,,,,,,,,,,,,,,,,,,,,,,,,,,,,,,,,,,,,,,,,,,,633.7355239000171,635.3743316000327,633.2286452000262,635.3743316000327,635.3743316000327,635.3743316000327,0.007167100033257157,0.012964299996383488,70,shock,1,[0.23609620000934228],[0.23610000003827736],635.6173931999947,635.6173931999947,0.007728999946266413,0.007728999946266413,0.018268699990585446,0.05299569998169318,0.059927199967205524,0.10158489999594167,0.10853989998577163,1.0043304999708198,639.1103894000407,642.8740406000288,,,,,,,,,,,,,,,,,,,,,,,,,,,,,18,A,2023-12-11_12h11.51.461,gca_avoidance_task,2022.2.4,143.95697412031666,
positions.xlsx,stimuli.xlsx,stimuli/Social1.png,stimuli/Social2.png,stimuli/Nonsocial1.png,stimuli/Nonsocial2.png,,"(-0.7, -0.5)",cs_minus_ns,,,,,0,0,0,0,,,,,1,14,30,13,,,,,,,,,,,,,,,,,,,,,,,,,,,,,,,,,,,,,,,,,,,,,,,,,,,,,,,,,,,,,,643.3809908000403,644.5476067000418,642.8740406000288,644.5476067000418,644.5476067000418,644.5476067000418,0.0070254000020213425,0.01298479997785762,75,reward,1,[0.1805247999727726],[0.18052840000018477],644.7351410000119,644.7351410000119,0.008253800042439252,0.008253800042439252,0.01850530004594475,0.05313519999617711,0.060112400038633496,0.10174090001964942,0.10871130001032725,1.0045158000430092,648.228052099992,652.5751324000303,,,,,,,,,,,,,,,,,,,,,,,,,,,,,18,A,2023-12-11_12h11.51.461,gca_avoidance_task,2022.2.4,143.95697412031666,
positions.xlsx,stimuli.xlsx,stimuli/Social1.png,stimuli/Social2.png,stimuli/Nonsocial1.png,stimuli/Nonsocial2.png,,"(-0.7, -0.5)",cs_minus_s,,,,,0,0,0,0,,,,,1,15,31,5,,,,,,,,,,,,,,,,,,,,,,,,,,,,,,,,,,,,,,,,,,,,,,,,,,,,,,,,,,,,,,653.0819715000107,654.4708310000133,652.5751324000303,654.4708310000133,654.4708310000133,654.4708310000133,0.00599610002245754,0.012843200005590916,80,reward,1,[0.3054539000149816],[0.30545760004315525],654.7833065000013,654.7833065000013,0.007166700030211359,0.007166700030211359,0.018287800019606948,0.052999400009866804,0.05990380002185702,0.10161489999154583,0.10856469999998808,1.004328400013037,658.2762470000307,661.3177450000076,,,,,,,,,,,,,,,,,,,,,,,,,,,,,18,A,2023-12-11_12h11.51.461,gca_avoidance_task,2022.2.4,143.95697412031666,
positions.xlsx,stimuli.xlsx,stimuli/Social1.png,stimuli/Social2.png,stimuli/Nonsocial1.png,stimuli/Nonsocial2.png,,"(-0.7, -0.5)",cs_minus_s,,,,,0,0,0,0,,,,,,,,,0,0,0,5,,,,,,,,,,,,,,,,,,,,,,,,,,,,,,,,,,,,,,,,,,,,,,,,,,,,,,,,,,677.5393673999934,679.4767637000186,677.0393764000037,679.4767637000186,679.4767637000186,679.4767637000186,0.005994100007228553,0.013265499961562455,80,none,0,,,684.4835105999955,684.4835105999955,0.013572099967859685,0.013572099967859685,0.02006090001668781,0.05467959999805316,0.06163909996394068,0.10333379998337477,0.1102932000067085,1.0130225999746472,687.9765049000271,691.5596601000289,661.3177450000076,661.3177450000076,661.3177450000076,661.3177450000076,space,14.057471800013445,,,,,,,,,,,,,,,,,,,,,,,18,A,2023-12-11_12h11.51.461,gca_avoidance_task,2022.2.4,143.95697412031666,
positions.xlsx,stimuli.xlsx,stimuli/Social1.png,stimuli/Social2.png,stimuli/Nonsocial1.png,stimuli/Nonsocial2.png,,"(-0.7, 0.5)",cs_plus_ns,,,,,0,0,0,0,,,,,,,,,0,1,1,8,,,,,,,,,,,,,,,,,,,,,,,,,,,,,,,,,,,,,,,,,,,,,,,,,,,,,,,,,,692.0665521000046,693.9762185,691.5596601000289,693.9762185,693.9762185,693.9762185,0.007137400039937347,0.013491899997461587,80,none,0,,,698.9829594999901,698.9829594999901,0.014231500041205436,0.014231500041205436,0.020196099998429418,0.05488950002472848,0.06184500001836568,0.1034625000320375,0.1104114000336267,1.0131687000393867,702.4758936000289,706.2882342000376,,,,,,,,,,,,,,,,,,,,,,,,,,,,,18,A,2023-12-11_12h11.51.461,gca_avoidance_task,2022.2.4,143.95697412031666,
positions.xlsx,stimuli.xlsx,stimuli/Social1.png,stimuli/Social2.png,stimuli/Nonsocial1.png,stimuli/Nonsocial2.png,,"(0.7, 0.5)",cs_minus_s,,,,,0,0,0,0,,,,,,,,,0,2,2,6,,,,,,,,,,,,,,,,,,,,,,,,,,,,,,,,,,,,,,,,,,,,,,,,,,,,,,,,,,706.7951419000165,708.5311770000262,706.2882342000376,708.5311770000262,708.5311770000262,708.5311770000262,0.006426899984944612,0.013307599991094321,80,none,0,,,713.5379556000116,713.5379556000116,0.014075299957767129,0.014075299957767129,0.020126999996136874,0.05479610001202673,0.061716699972748756,0.10337560001062229,0.11034399998607114,1.0130957000073977,717.030879900034,720.8571196999983,,,,,,,,,,,,,,,,,,,,,,,,,,,,,18,A,2023-12-11_12h11.51.461,gca_avoidance_task,2022.2.4,143.95697412031666,
positions.xlsx,stimuli.xlsx,stimuli/Social1.png,stimuli/Social2.png,stimuli/Nonsocial1.png,stimuli/Nonsocial2.png,,"(0.7, -0.5)",cs_plus_s,,,,,0,0,0,0,,,,,,,,,0,3,3,3,,,,,,,,,,,,,,,,,,,,,,,,,,,,,,,,,,,,,,,,,,,,,,,,,,,,,,,,,,721.3639862000127,723.1486664999975,720.8571196999983,723.1486664999975,723.1486664999975,723.1486664999975,0.0058592999703250825,0.013332000002264977,80,none,0,,,728.1553927999921,728.1553927999921,0.013978499977383763,0.013978499977383763,0.020098399952985346,0.05473969999002293,0.06174679996911436,0.10339629999361932,0.11033919994952157,1.0130151999765076,731.648356300022,735.5162525000051,,,,,,,,,,,,,,,,,,,,,,,,,,,,,18,A,2023-12-11_12h11.51.461,gca_avoidance_task,2022.2.4,143.95697412031666,
positions.xlsx,stimuli.xlsx,stimuli/Social1.png,stimuli/Social2.png,stimuli/Nonsocial1.png,stimuli/Nonsocial2.png,,"(-0.7, 0.5)",cs_minus_ns,,,,,0,0,0,0,,,,,,,,,0,4,4,12,,,,,,,,,,,,,,,,,,,,,,,,,,,,,,,,,,,,,,,,,,,,,,,,,,,,,,,,,,736.0231255000108,737.1758663000073,735.5162525000051,737.1758663000073,737.1758663000073,737.1758663000073,0.006443399994168431,0.013383599987719208,80,none,0,,,742.1826312000048,742.1826312000048,0.013879999984055758,0.013879999984055758,0.02017219999106601,0.0548665999667719,0.0618228999665007,0.10345779999624938,0.11043919995427132,1.0131422999547794,745.6755629000254,749.5087888000417,,,,,,,,,,,,,,,,,,,,,,,,,,,,,18,A,2023-12-11_12h11.51.461,gca_avoidance_task,2022.2.4,143.95697412031666,
positions.xlsx,stimuli.xlsx,stimuli/Social1.png,stimuli/Social2.png,stimuli/Nonsocial1.png,stimuli/Nonsocial2.png,,"(-0.7, -0.5)",cs_plus_s,,,,,0,0,0,0,,,,,,,,,0,5,5,1,,,,,,,,,,,,,,,,,,,,,,,,,,,,,,,,,,,,,,,,,,,,,,,,,,,,,,,,,,750.0156502000173,751.7308465000242,749.5087888000417,751.7308465000242,751.7308465000242,751.7308465000242,0.005883000034373254,0.01311380002880469,80,none,0,,,756.7376021000091,756.7376021000091,0.013271600008010864,0.013271600008010864,0.019872200035024434,0.05460350000066683,0.06162779999431223,0.10319779999554157,0.11011670000152662,1.012841199990362,760.2305519999936,764.2581647000043,,,,,,,,,,,,,,,,,,,,,,,,,,,,,18,A,2023-12-11_12h11.51.461,gca_avoidance_task,2022.2.4,143.95697412031666,
positions.xlsx,stimuli.xlsx,stimuli/Social1.png,stimuli/Social2.png,stimuli/Nonsocial1.png,stimuli/Nonsocial2.png,,"(0.7, -0.5)",cs_minus_s,,,,,0,0,0,0,,,,,,,,,0,6,6,7,,,,,,,,,,,,,,,,,,,,,,,,,,,,,,,,,,,,,,,,,,,,,,,,,,,,,,,,,,764.7650548000238,766.2233286999981,764.2581647000043,766.2233286999981,766.2233286999981,766.2233286999981,0.005968400044366717,0.013330300047527999,80,none,0,,,771.2300862999982,771.2300862999982,0.013963900040835142,0.013963900040835142,0.020068900019396096,0.0547377000330016,0.06172970001352951,0.10344860004261136,0.11034030001610518,1.0130774000426754,774.7230008000042,778.8895770999952,,,,,,,,,,,,,,,,,,,,,,,,,,,,,18,A,2023-12-11_12h11.51.461,gca_avoidance_task,2022.2.4,143.95697412031666,
positions.xlsx,stimuli.xlsx,stimuli/Social1.png,stimuli/Social2.png,stimuli/Nonsocial1.png,stimuli/Nonsocial2.png,,"(-0.7, 0.5)",cs_plus_s,,,,,0,0,0,0,,,,,,,,,0,7,7,0,,,,,,,,,,,,,,,,,,,,,,,,,,,,,,,,,,,,,,,,,,,,,,,,,,,,,,,,,,779.396409500041,780.7505285000079,778.8895770999952,780.7505285000079,780.7505285000079,780.7505285000079,0.005907999991904944,0.012544299999717623,80,none,0,,,785.7573050000356,785.7573050000356,0.012599199952092022,0.012599199952092022,0.01932909997412935,0.0539730999735184,0.06094589998247102,0.10257429996272549,0.10954350000247359,1.0122457999968901,789.2502340000356,793.2153851999901,,,,,,,,,,,,,,,,,,,,,,,,,,,,,18,A,2023-12-11_12h11.51.461,gca_avoidance_task,2022.2.4,143.95697412031666,
positions.xlsx,stimuli.xlsx,stimuli/Social1.png,stimuli/Social2.png,stimuli/Nonsocial1.png,stimuli/Nonsocial2.png,,"(0.7, 0.5)",cs_plus_ns,,,,,0,0,0,0,,,,,,,,,0,8,8,10,,,,,,,,,,,,,,,,,,,,,,,,,,,,,,,,,,,,,,,,,,,,,,,,,,,,,,,,,,793.7222322000307,795.3471792000346,793.2153851999901,795.3471792000346,795.3471792000346,795.3471792000346,0.006649099988862872,0.01332999998703599,80,shock,1,[0.2715398999862373],[0.27154359995620325],795.6249221999897,795.6249221999897,0.00827180000487715,0.00827180000487715,0.018166500027291477,0.05284290004055947,0.05980950000230223,0.1014825000311248,0.1084450000198558,1.004192000022158,799.1178825999959,803.5830269000144,,,,,,,,,,,,,,,,,,,,,,,,,,,,,18,A,2023-12-11_12h11.51.461,gca_avoidance_task,2022.2.4,143.95697412031666,
positions.xlsx,stimuli.xlsx,stimuli/Social1.png,stimuli/Social2.png,stimuli/Nonsocial1.png,stimuli/Nonsocial2.png,,"(0.7, -0.5)",cs_plus_ns,,,,,0,0,0,0,,,,,,,,,0,9,9,11,,,,,,,,,,,,,,,,,,,,,,,,,,,,,,,,,,,,,,,,,,,,,,,,,,,,,,,,,,804.0898492000415,805.3884442000417,803.5830269000144,805.3884442000417,805.3884442000417,805.3884442000417,0.006892199977301061,0.013328199973329902,80,none,0,,,810.3951884999988,810.3951884999988,0.014248799998313189,0.014248799998313189,0.02007839997531846,0.054772800009232014,0.06184829998528585,0.10340500000165775,0.11035739997169003,1.0130655000102706,813.8881517000264,817.5754677000223,,,,,,,,,,,,,,,,,,,,,,,,,,,,,18,A,2023-12-11_12h11.51.461,gca_avoidance_task,2022.2.4,143.95697412031666,
positions.xlsx,stimuli.xlsx,stimuli/Social1.png,stimuli/Social2.png,stimuli/Nonsocial1.png,stimuli/Nonsocial2.png,,"(-0.7, -0.5)",cs_plus_ns,,,,,0,0,0,0,,,,,,,,,0,10,10,9,,,,,,,,,,,,,,,,,,,,,,,,,,,,,,,,,,,,,,,,,,,,,,,,,,,,,,,,,,818.0823833000031,819.4642929999973,817.5754677000223,819.4642929999973,819.4642929999973,819.4642929999973,0.0066019999794662,0.013182699971366674,80,none,0,,,824.4710642000427,824.4710642000427,0.014801599958445877,0.014801599958445877,0.020026299986056983,0.05469169997377321,0.06159309996291995,0.10322069999529049,0.11018349998630583,1.0128932999796234,827.9639497000026,832.3318977000308,,,,,,,,,,,,,,,,,,,,,,,,,,,,,18,A,2023-12-11_12h11.51.461,gca_avoidance_task,2022.2.4,143.95697412031666,
positions.xlsx,stimuli.xlsx,stimuli/Social1.png,stimuli/Social2.png,stimuli/Nonsocial1.png,stimuli/Nonsocial2.png,,"(0.7, 0.5)",cs_minus_ns,,,,,0,0,0,0,,,,,,,,,0,11,11,14,,,,,,,,,,,,,,,,,,,,,,,,,,,,,,,,,,,,,,,,,,,,,,,,,,,,,,,,,,832.8387451000162,834.0609131000238,832.3318977000308,834.0609131000238,834.0609131000238,834.0609131000238,0.006679899990558624,0.013111500011291355,80,none,0,,,839.0676743999938,839.0676743999938,0.014089400006923825,0.014089400006923825,0.019864699977915734,0.054532799986191094,0.06148649996612221,0.10313929995754734,0.1101697999984026,1.0128474999801256,842.5606297000195,846.7271089000278,,,,,,,,,,,,,,,,,,,,,,,,,,,,,18,A,2023-12-11_12h11.51.461,gca_avoidance_task,2022.2.4,143.95697412031666,
positions.xlsx,stimuli.xlsx,stimuli/Social1.png,stimuli/Social2.png,stimuli/Nonsocial1.png,stimuli/Nonsocial2.png,,"(-0.7, -0.5)",cs_minus_ns,,,,,0,0,0,0,,,,,,,,,0,12,12,13,,,,,,,,,,,,,,,,,,,,,,,,,,,,,,,,,,,,,,,,,,,,,,,,,,,,,,,,,,847.2339944000123,848.4909205000149,846.7271089000278,848.4909205000149,848.4909205000149,848.4909205000149,0.006485800025984645,0.013106500031426549,85,reward,1,[1.7362196000176482],[1.7362232999876142],850.2338856999995,850.2338856999995,0.007943600008729845,0.007943600008729845,0.018421200045850128,0.05313459999160841,0.060038399999029934,0.10170040000230074,0.1086498000076972,1.00443000002997,853.7268573000329,858.0044473999878,,,,,,,,,,,,,,,,,,,,,,,,,,,,,18,A,2023-12-11_12h11.51.461,gca_avoidance_task,2022.2.4,143.95697412031666,
positions.xlsx,stimuli.xlsx,stimuli/Social1.png,stimuli/Social2.png,stimuli/Nonsocial1.png,stimuli/Nonsocial2.png,,"(0.7, 0.5)",cs_plus_s,,,,,0,0,0,0,,,,,,,,,0,13,13,2,,,,,,,,,,,,,,,,,,,,,,,,,,,,,,,,,,,,,,,,,,,,,,,,,,,,,,,,,,858.5113585999934,859.962665900006,858.0044473999878,859.962665900006,859.962665900006,859.962665900006,0.00588050001533702,0.013201900001149625,85,shock,1,[1.9514604000141844],[1.951463999983389],861.9139982000343,861.9139982000343,0.0069219000288285315,0.0069219000288285315,0.011841800005640835,0.053488000005017966,0.06044939998537302,0.10208570002578199,0.10904330003540963,1.0048299999907613,865.4138680000324,869.0109444000409,,,,,,,,,,,,,,,,,,,,,,,,,,,,,18,A,2023-12-11_12h11.51.461,gca_avoidance_task,2022.2.4,143.95697412031666,
positions.xlsx,stimuli.xlsx,stimuli/Social1.png,stimuli/Social2.png,stimuli/Nonsocial1.png,stimuli/Nonsocial2.png,,"(-0.7, 0.5)",cs_minus_s,,,,,0,0,0,0,,,,,,,,,0,14,14,4,,,,,,,,,,,,,,,,,,,,,,,,,,,,,,,,,,,,,,,,,,,,,,,,,,,,,,,,,,869.5178675000207,870.8789022000274,869.0109444000409,870.8789022000274,870.8789022000274,870.8789022000274,0.007030100037809461,0.013228600029833615,85,none,0,,,875.8856426000129,875.8856426000129,0.01517760002752766,0.01517760002752766,0.019980400044005364,0.05466379999415949,0.06167160003678873,0.10327740001957864,0.11022989999037236,1.012974800018128,879.3786300999927,883.4687362000113,,,,,,,,,,,,,,,,,,,,,,,,,,,,,18,A,2023-12-11_12h11.51.461,gca_avoidance_task,2022.2.4,143.95697412031666,
positions.xlsx,stimuli.xlsx,stimuli/Social1.png,stimuli/Social2.png,stimuli/Nonsocial1.png,stimuli/Nonsocial2.png,,"(0.7, -0.5)",cs_minus_ns,,,,,0,0,0,0,,,,,,,,,0,15,15,15,,,,,,,,,,,,,,,,,,,,,,,,,,,,,,,,,,,,,,,,,,,,,,,,,,,,,,,,,,883.9756234000088,885.9338499000296,883.4687362000113,885.9338499000296,885.9338499000296,885.9338499000296,0.007425300020258874,0.013043400016613305,85,none,0,,,890.9406533000292,890.9406533000292,0.014692600001581013,0.014692600001581013,0.019830900011584163,0.05448590003652498,0.06146400002762675,0.10315320000518113,0.11004350002622232,1.0127797000459395,894.4335984000354,898.9056385000004,,,,,,,,,,,,,,,,,,,,,,,,,,,,,18,A,2023-12-11_12h11.51.461,gca_avoidance_task,2022.2.4,143.95697412031666,
positions.xlsx,stimuli.xlsx,stimuli/Social1.png,stimuli/Social2.png,stimuli/Nonsocial1.png,stimuli/Nonsocial2.png,,"(0.7, -0.5)",cs_minus_s,,,,,0,0,0,0,,,,,,,,,1,0,16,7,,,,,,,,,,,,,,,,,,,,,,,,,,,,,,,,,,,,,,,,,,,,,,,,,,,,,,,,,,899.4124870999949,900.9541440000175,898.9056385000004,900.9541440000175,900.9541440000175,900.9541440000175,0.0057493000058457255,0.012998600024729967,85,none,0,,,905.9608598999912,905.9608598999912,0.013351299974601716,0.013351299974601716,0.019727899983990937,0.05439609999302775,0.06132480001542717,0.10299350001150742,0.10990570002468303,1.0126521000056528,909.4538395000272,913.9258685000241,,,,,,,,,,,,,,,,,,,,,,,,,,,,,18,A,2023-12-11_12h11.51.461,gca_avoidance_task,2022.2.4,143.95697412031666,
positions.xlsx,stimuli.xlsx,stimuli/Social1.png,stimuli/Social2.png,stimuli/Nonsocial1.png,stimuli/Nonsocial2.png,,"(-0.7, 0.5)",cs_minus_ns,,,,,0,0,0,0,,,,,,,,,1,1,17,12,,,,,,,,,,,,,,,,,,,,,,,,,,,,,,,,,,,,,,,,,,,,,,,,,,,,,,,,,,914.4327469000127,915.8632496999926,913.9258685000241,915.8632496999926,915.8632496999926,915.8632496999926,0.00728660001186654,0.013260499981697649,85,none,0,,,920.8699857000029,920.8699857000029,0.01544139999896288,0.01544139999896288,0.01994999998714775,0.054642400005832314,0.061564499977976084,0.10324660001788288,0.11018189997412264,1.0129722999990918,924.3629331000266,928.2864293000312,,,,,,,,,,,,,,,,,,,,,,,,,,,,,18,A,2023-12-11_12h11.51.461,gca_avoidance_task,2022.2.4,143.95697412031666,
positions.xlsx,stimuli.xlsx,stimuli/Social1.png,stimuli/Social2.png,stimuli/Nonsocial1.png,stimuli/Nonsocial2.png,,"(0.7, 0.5)",cs_minus_ns,,,,,0,0,0,0,,,,,,,,,1,2,18,14,,,,,,,,,,,,,,,,,,,,,,,,,,,,,,,,,,,,,,,,,,,,,,,,,,,,,,,,,,928.793282300001,930.5779320000438,928.2864293000312,930.5779320000438,930.5779320000438,930.5779320000438,0.006371999974362552,0.013135299959685653,85,none,0,,,935.5847471000161,935.5847471000161,0.014505799976177514,0.014505799976177514,0.019957799988333136,0.054600599978584796,0.061533099971711636,0.10321069997735322,0.11016989999916404,1.0128685999661684,939.0776456000167,943.4107831000001,,,,,,,,,,,,,,,,,,,,,,,,,,,,,18,A,2023-12-11_12h11.51.461,gca_avoidance_task,2022.2.4,143.95697412031666,
positions.xlsx,stimuli.xlsx,stimuli/Social1.png,stimuli/Social2.png,stimuli/Nonsocial1.png,stimuli/Nonsocial2.png,,"(-0.7, -0.5)",cs_minus_ns,,,,,0,0,0,0,,,,,,,,,1,3,19,13,,,,,,,,,,,,,,,,,,,,,,,,,,,,,,,,,,,,,,,,,,,,,,,,,,,,,,,,,,943.9176806000178,945.1538053000113,943.4107831000001,945.1538053000113,945.1538053000113,945.1538053000113,0.006523300020489842,0.013039799989201128,85,none,0,,,950.1605395000079,950.1605395000079,0.013546600006520748,0.013546600006520748,0.019755000015720725,0.05442360002780333,0.061394000018481165,0.10304260003613308,0.10995680000633001,1.0127115999930538,953.6534507999895,957.8963454000186,,,,,,,,,,,,,,,,,,,,,,,,,,,,,18,A,2023-12-11_12h11.51.461,gca_avoidance_task,2022.2.4,143.95697412031666,
positions.xlsx,stimuli.xlsx,stimuli/Social1.png,stimuli/Social2.png,stimuli/Nonsocial1.png,stimuli/Nonsocial2.png,,"(-0.7, -0.5)",cs_plus_s,,,,,0,0,0,0,,,,,,,,,1,4,20,1,,,,,,,,,,,,,,,,,,,,,,,,,,,,,,,,,,,,,,,,,,,,,,,,,,,,,,,,,,958.4032451999956,959.6462485000375,957.8963454000186,959.6462485000375,959.6462485000375,959.6462485000375,0.0060597999836318195,0.013298599980771542,85,none,0,,,964.6529637000058,964.6529637000058,0.013737200002651662,0.013737200002651662,0.020037899957969785,0.05471359996590763,0.06164639996131882,0.10333699994953349,0.1102997999987565,1.0130180999985896,968.1459304000018,972.2083180000191,,,,,,,,,,,,,,,,,,,,,,,,,,,,,18,A,2023-12-11_12h11.51.461,gca_avoidance_task,2022.2.4,143.95697412031666,
positions.xlsx,stimuli.xlsx,stimuli/Social1.png,stimuli/Social2.png,stimuli/Nonsocial1.png,stimuli/Nonsocial2.png,,"(0.7, 0.5)",cs_plus_ns,,,,,0,0,0,0,,,,,,,,,1,5,21,10,,,,,,,,,,,,,,,,,,,,,,,,,,,,,,,,,,,,,,,,,,,,,,,,,,,,,,,,,,972.7151225000271,974.6317735000048,972.2083180000191,974.6317735000048,974.6317735000048,974.6317735000048,0.007786699978169054,0.012840599985793233,85,shock,1,[0.9441799999913201],[0.9511175999650732],975.5900963000022,975.5900963000022,0.008032099984120578,0.008032099984120578,0.01871700002811849,0.053332499985117465,0.06031159998383373,0.10195420001400635,0.10893320001196116,1.0047276000259444,979.0829921000404,982.8814669999992,,,,,,,,,,,,,,,,,,,,,,,,,,,,,18,A,2023-12-11_12h11.51.461,gca_avoidance_task,2022.2.4,143.95697412031666,
positions.xlsx,stimuli.xlsx,stimuli/Social1.png,stimuli/Social2.png,stimuli/Nonsocial1.png,stimuli/Nonsocial2.png,,"(0.7, -0.5)",cs_plus_ns,,,,,0,0,0,0,,,,,,,,,1,6,22,11,,,,,,,,,,,,,,,,,,,,,,,,,,,,,,,,,,,,,,,,,,,,,,,,,,,,,,,,,,983.3883753000409,984.5966985000414,982.8814669999992,984.5966985000414,984.5966985000414,984.5966985000414,0.0062682999996468425,0.013140700000803918,85,none,0,,,989.6033814999973,989.6033814999973,0.014110999996773899,0.014110999996773899,0.019872999982908368,0.05453800002578646,0.06150850001722574,0.10314269998343661,0.1101007999968715,1.0128506000037305,993.0963659000117,996.6586896000081,,,,,,,,,,,,,,,,,,,,,,,,,,,,,18,A,2023-12-11_12h11.51.461,gca_avoidance_task,2022.2.4,143.95697412031666,
positions.xlsx,stimuli.xlsx,stimuli/Social1.png,stimuli/Social2.png,stimuli/Nonsocial1.png,stimuli/Nonsocial2.png,,"(0.7, 0.5)",cs_plus_s,,,,,0,0,0,0,,,,,,,,,1,7,23,2,,,,,,,,,,,,,,,,,,,,,,,,,,,,,,,,,,,,,,,,,,,,,,,,,,,,,,,,,,997.1656124000438,998.6377630000352,996.6586896000081,998.6377630000352,998.6377630000352,998.6377630000352,0.006139600009191781,0.013097100018057972,85,none,0,,,1003.6445192000247,1003.6445192000247,0.01379679999081418,0.01379679999081418,0.019814600003883243,0.05448180000530556,0.061471200024243444,0.10311500000534579,0.11007990001235157,1.0128988000215031,1007.1374817999895,1010.9567149000359,,,,,,,,,,,,,,,,,,,,,,,,,,,,,18,A,2023-12-11_12h11.51.461,gca_avoidance_task,2022.2.4,143.95697412031666,
positions.xlsx,stimuli.xlsx,stimuli/Social1.png,stimuli/Social2.png,stimuli/Nonsocial1.png,stimuli/Nonsocial2.png,,"(0.7, 0.5)",cs_minus_s,,,,,0,0,0,0,,,,,,,,,1,8,24,6,,,,,,,,,,,,,,,,,,,,,,,,,,,,,,,,,,,,,,,,,,,,,,,,,,,,,,,,,,1011.463630800019,1013.449684399995,1010.9567149000359,1013.449684399995,1013.449684399995,1013.449684399995,0.005960599984973669,0.01339819998247549,85,none,0,,,1018.4564555000397,1018.4564555000397,0.013420899980701506,0.013420899980701506,0.020144800015259534,0.05476909998105839,0.061728800006676465,0.10341579996747896,0.11032320000231266,1.013061799982097,1021.9493768000393,1025.5394958000397,,,,,,,,,,,,,,,,,,,,,,,,,,,,,18,A,2023-12-11_12h11.51.461,gca_avoidance_task,2022.2.4,143.95697412031666,
positions.xlsx,stimuli.xlsx,stimuli/Social1.png,stimuli/Social2.png,stimuli/Nonsocial1.png,stimuli/Nonsocial2.png,,"(-0.7, 0.5)",cs_plus_ns,,,,,0,0,0,0,,,,,,,,,1,9,25,8,,,,,,,,,,,,,,,,,,,,,,,,,,,,,,,,,,,,,,,,,,,,,,,,,,,,,,,,,,1026.0463855999988,1027.435221199994,1025.5394958000397,1027.435221199994,1027.435221199994,1027.435221199994,0.00683159998152405,0.01343079999787733,85,none,0,,,1032.4420072000357,1032.4420072000357,0.014170499984174967,0.014170499984174967,0.020251600013580173,0.05489690002286807,0.061891900026239455,0.10349290003068745,0.1104559000232257,1.0131692999857478,1035.9349654000252,1039.781981200038,,,,,,,,,,,,,,,,,,,,,,,,,,,,,18,A,2023-12-11_12h11.51.461,gca_avoidance_task,2022.2.4,143.95697412031666,
positions.xlsx,stimuli.xlsx,stimuli/Social1.png,stimuli/Social2.png,stimuli/Nonsocial1.png,stimuli/Nonsocial2.png,,"(-0.7, 0.5)",cs_minus_s,,,,,0,0,0,0,,,,,,,,,1,10,26,4,,,,,,,,,,,,,,,,,,,,,,,,,,,,,,,,,,,,,,,,,,,,,,,,,,,,,,,,,,1040.2889155999874,1041.3096871000016,1039.781981200038,1041.3096871000016,1041.3096871000016,1041.3096871000016,0.006169700005557388,0.013167599972803146,85,none,0,,,1046.3164244000218,1046.3164244000218,0.01350329996785149,0.01350329996785149,0.019905799999833107,0.05462519999127835,0.061622000008355826,0.10320259997388348,0.11013919999822974,1.0128945999895222,1049.8093842000235,1054.086997000035,,,,,,,,,,,,,,,,,,,,,,,,,,,,,18,A,2023-12-11_12h11.51.461,gca_avoidance_task,2022.2.4,143.95697412031666,
positions.xlsx,stimuli.xlsx,stimuli/Social1.png,stimuli/Social2.png,stimuli/Nonsocial1.png,stimuli/Nonsocial2.png,,"(-0.7, 0.5)",cs_plus_s,,,,,0,0,0,0,,,,,,,,,1,11,27,0,,,,,,,,,,,,,,,,,,,,,,,,,,,,,,,,,,,,,,,,,,,,,,,,,,,,,,,,,,1054.5938742000144,1055.9757753000013,1054.086997000035,1055.9757753000013,1055.9757753000013,1055.9757753000013,0.005632099986542016,0.013143700023647398,85,none,0,,,1060.9825095999986,1060.9825095999986,0.013122300035320222,0.013122300035320222,0.019885800022166222,0.05459160002646968,0.06157409999286756,0.10318750003352761,0.11017360002733767,1.0128997000283562,1064.4754453999922,1068.697531600017,,,,,,,,,,,,,,,,,,,,,,,,,,,,,18,A,2023-12-11_12h11.51.461,gca_avoidance_task,2022.2.4,143.95697412031666,
positions.xlsx,stimuli.xlsx,stimuli/Social1.png,stimuli/Social2.png,stimuli/Nonsocial1.png,stimuli/Nonsocial2.png,,"(0.7, -0.5)",cs_minus_ns,,,,,0,0,0,0,,,,,,,,,1,12,28,15,,,,,,,,,,,,,,,,,,,,,,,,,,,,,,,,,,,,,,,,,,,,,,,,,,,,,,,,,,1069.2044236999936,1070.2599227000028,1068.697531600017,1070.2599227000028,1070.2599227000028,1070.2599227000028,0.0065605000127106905,0.0131315000471659,85,none,0,,,1075.2666752000223,1075.2666752000223,0.013791600009426475,0.013791600009426475,0.01991860003909096,0.05458250001538545,0.06160850002197549,0.10322590003488585,0.1101269000209868,1.0129295000224374,1078.7596607999876,1082.6761377000366,,,,,,,,,,,,,,,,,,,,,,,,,,,,,18,A,2023-12-11_12h11.51.461,gca_avoidance_task,2022.2.4,143.95697412031666,
positions.xlsx,stimuli.xlsx,stimuli/Social1.png,stimuli/Social2.png,stimuli/Nonsocial1.png,stimuli/Nonsocial2.png,,"(0.7, -0.5)",cs_plus_s,,,,,0,0,0,0,,,,,,,,,1,13,29,3,,,,,,,,,,,,,,,,,,,,,,,,,,,,,,,,,,,,,,,,,,,,,,,,,,,,,,,,,,1083.1830260000424,1084.8913192999898,1082.6761377000366,1084.8913192999898,1084.8913192999898,1084.8913192999898,0.005592100031208247,0.013190300029236823,85,none,0,,,1089.8980574000161,1089.8980574000161,0.013000700040720403,0.013000700040720403,0.019925100030377507,0.05456600000616163,0.061543399991933256,0.10321600001771003,0.11013019998790696,1.0128646999946795,1093.3910212999908,1097.0436426000088,,,,,,,,,,,,,,,,,,,,,,,,,,,,,18,A,2023-12-11_12h11.51.461,gca_avoidance_task,2022.2.4,143.95697412031666,
positions.xlsx,stimuli.xlsx,stimuli/Social1.png,stimuli/Social2.png,stimuli/Nonsocial1.png,stimuli/Nonsocial2.png,,"(-0.7, -0.5)",cs_plus_ns,,,,,0,0,0,0,,,,,,,,,1,14,30,9,,,,,,,,,,,,,,,,,,,,,,,,,,,,,,,,,,,,,,,,,,,,,,,,,,,,,,,,,,1097.55048179999,1098.84214100003,1097.0436426000088,1098.84214100003,1098.84214100003,1098.84214100003,0.00622129999101162,0.013143999967724085,85,none,0,,,1103.848877200042,1103.848877200042,0.014108699979260564,0.014108699979260564,0.01993060001404956,0.05463289999170229,0.06159509997814894,0.10319709999021143,0.11020180000923574,1.0128834000206552,1107.3418419000227,1111.7166694999905,,,,,,,,,,,,,,,,,,,,,,,,,,,,,18,A,2023-12-11_12h11.51.461,gca_avoidance_task,2022.2.4,143.95697412031666,
positions.xlsx,stimuli.xlsx,stimuli/Social1.png,stimuli/Social2.png,stimuli/Nonsocial1.png,stimuli/Nonsocial2.png,,"(-0.7, -0.5)",cs_minus_s,,,,,0,0,0,0,,,,,,,,,1,15,31,5,,,,,,,,,,,,,,,,,,,,,,,,,,,,,,,,,,,,,,,,,,,,,,,,,,,,,,,,,,1112.2235571999918,1114.0637483000173,1111.7166694999905,1114.0637483000173,1114.0637483000173,1114.0637483000173,0.006011999968905002,0.01282329997047782,85,none,0,,,1119.070528000011,1119.070528000011,0.012887899996712804,0.012887899996712804,0.019587599963415414,0.05422240000916645,0.06117999996058643,0.10286199999973178,0.10989269998390228,1.012547199963592,1122.563467000029,1126.778568300011,,,,,,,,,,,,,,,,,,,,,,,,,,,,,18,A,2023-12-11_12h11.51.461,gca_avoidance_task,2022.2.4,143.95697412031666,
positions.xlsx,stimuli.xlsx,stimuli/Social1.png,stimuli/Social2.png,stimuli/Nonsocial1.png,stimuli/Nonsocial2.png,,"(0.7, 0.5)",cs_minus_ns,,,,,0,0,0,0,,,,,,,,,2,0,32,14,,,,,,,,,,,,,,,,,,,,,,,,,,,,,,,,,,,,,,,,,,,,,,,,,,,,,,,,,,1127.2854432000313,1128.6256794999936,1126.778568300011,1128.6256794999936,1128.6256794999936,1128.6256794999936,0.007059599971398711,0.012941399996634573,85,none,0,,,1133.6324523999938,1133.6324523999938,0.014666099974419922,0.014666099974419922,0.019709400017745793,0.0543335999827832,0.06129250000230968,0.10298289998900145,0.1098898000200279,1.012665599992033,1137.1254028000403,1141.618266400008,,,,,,,,,,,,,,,,,,,,,,,,,,,,,18,A,2023-12-11_12h11.51.461,gca_avoidance_task,2022.2.4,143.95697412031666,
positions.xlsx,stimuli.xlsx,stimuli/Social1.png,stimuli/Social2.png,stimuli/Nonsocial1.png,stimuli/Nonsocial2.png,,"(0.7, 0.5)",cs_plus_s,,,,,0,0,0,0,,,,,,,,,2,1,33,2,,,,,,,,,,,,,,,,,,,,,,,,,,,,,,,,,,,,,,,,,,,,,,,,,,,,,,,,,,1142.1251968000433,1143.9028574000113,1141.618266400008,1143.9028574000113,1143.9028574000113,1143.9028574000113,0.006223399948794395,0.012869899976067245,85,none,0,,,1148.9096379000111,1148.9096379000111,0.01308849995257333,0.01308849995257333,0.01967429998330772,0.05432419996941462,0.0612956999684684,0.10290699999313802,0.10986489994684234,1.0126557999756187,1152.4025879999972,1156.0135633000173,,,,,,,,,,,,,,,,,,,,,,,,,,,,,18,A,2023-12-11_12h11.51.461,gca_avoidance_task,2022.2.4,143.95697412031666,
positions.xlsx,stimuli.xlsx,stimuli/Social1.png,stimuli/Social2.png,stimuli/Nonsocial1.png,stimuli/Nonsocial2.png,,"(0.7, -0.5)",cs_plus_ns,,,,,0,0,0,0,,,,,,,,,2,2,34,11,,,,,,,,,,,,,,,,,,,,,,,,,,,,,,,,,,,,,,,,,,,,,,,,,,,,,,,,,,1156.5204418000067,1157.5481523000053,1156.0135633000173,1157.5481523000053,1157.5481523000053,1157.5481523000053,0.006626099988352507,0.012970699986908585,85,none,0,,,1162.554898500035,1162.554898500035,0.01385139999911189,0.01385139999911189,0.01972630003001541,0.05439880001358688,0.06135670002549887,0.10304770001675934,0.11000799998873845,1.0127346999943256,1166.0478686999995,1169.9643990999903,,,,,,,,,,,,,,,,,,,,,,,,,,,,,18,A,2023-12-11_12h11.51.461,gca_avoidance_task,2022.2.4,143.95697412031666,
positions.xlsx,stimuli.xlsx,stimuli/Social1.png,stimuli/Social2.png,stimuli/Nonsocial1.png,stimuli/Nonsocial2.png,,"(-0.7, -0.5)",cs_minus_s,,,,,0,0,0,0,,,,,,,,,2,3,35,5,,,,,,,,,,,,,,,,,,,,,,,,,,,,,,,,,,,,,,,,,,,,,,,,,,,,,,,,,,1170.4712503000046,1171.610103700019,1169.9643990999903,1171.610103700019,1171.610103700019,1171.610103700019,0.006120800040662289,0.013174700026866049,85,none,0,,,1176.616866700002,1176.616866700002,0.013576700002886355,0.013576700002886355,0.019876900012604892,0.054639600042719394,0.06151150004006922,0.10317210003267974,0.11012020002817735,1.0128378000226803,1180.109806100023,1183.6304926000303,,,,,,,,,,,,,,,,,,,,,,,,,,,,,18,A,2023-12-11_12h11.51.461,gca_avoidance_task,2022.2.4,143.95697412031666,
positions.xlsx,stimuli.xlsx,stimuli/Social1.png,stimuli/Social2.png,stimuli/Nonsocial1.png,stimuli/Nonsocial2.png,,"(0.7, 0.5)",cs_plus_ns,,,,,0,0,0,0,,,,,,,,,2,4,36,10,,,,,,,,,,,,,,,,,,,,,,,,,,,,,,,,,,,,,,,,,,,,,,,,,,,,,,,,,,1184.1373987999978,1185.2484531000373,1183.6304926000303,1185.2484531000373,1185.2484531000373,1185.2484531000373,0.006529399950522929,0.012965300003997982,85,none,0,,,1190.2551650000387,1190.2551650000387,0.014188300003297627,0.014188300003297627,0.01968139997916296,0.054374300001654774,0.06131719995755702,0.10305729997344315,0.10996689996682107,1.0126525999512523,1193.7481869999901,1197.553551000019,,,,,,,,,,,,,,,,,,,,,,,,,,,,,18,A,2023-12-11_12h11.51.461,gca_avoidance_task,2022.2.4,143.95697412031666,
positions.xlsx,stimuli.xlsx,stimuli/Social1.png,stimuli/Social2.png,stimuli/Nonsocial1.png,stimuli/Nonsocial2.png,,"(0.7, 0.5)",cs_minus_s,,,,,0,0,0,0,,,,,,,,,2,5,37,6,,,,,,,,,,,,,,,,,,,,,,,,,,,,,,,,,,,,,,,,,,,,,,,,,,,,,,,,,,1198.0604842000175,1199.553443300014,1197.553551000019,1199.553443300014,1199.553443300014,1199.553443300014,0.006534499989356846,0.012824399978853762,85,none,0,,,1204.5601870000246,1204.5601870000246,0.013068499974906445,0.013068499974906445,0.019579699961468577,0.05429800000274554,0.06122549995779991,0.10289519996149465,0.10982869996223599,1.012612899998203,1208.0531764000189,1212.1085526000243,,,,,,,,,,,,,,,,,,,,,,,,,,,,,18,A,2023-12-11_12h11.51.461,gca_avoidance_task,2022.2.4,143.95697412031666,
positions.xlsx,stimuli.xlsx,stimuli/Social1.png,stimuli/Social2.png,stimuli/Nonsocial1.png,stimuli/Nonsocial2.png,,"(0.7, -0.5)",cs_minus_ns,,,,,0,0,0,0,,,,,,,,,2,6,38,15,,,,,,,,,,,,,,,,,,,,,,,,,,,,,,,,,,,,,,,,,,,,,,,,,,,,,,,,,,1212.6154237000155,1214.0737336000311,1212.1085526000243,1214.0737336000311,1214.0737336000311,1214.0737336000311,0.006820799957495183,0.012987399997655302,85,none,0,,,1219.08045280003,1219.08045280003,0.01367359998403117,0.01367359998403117,0.019687199965119362,0.05442039994522929,0.061384999949950725,0.10298709996277466,0.10998609999660403,1.0126681999536231,1222.5734068999882,1226.9343563000439,,,,,,,,,,,,,,,,,,,,,,,,,,,,,18,A,2023-12-11_12h11.51.461,gca_avoidance_task,2022.2.4,143.95697412031666,
positions.xlsx,stimuli.xlsx,stimuli/Social1.png,stimuli/Social2.png,stimuli/Nonsocial1.png,stimuli/Nonsocial2.png,,"(-0.7, 0.5)",cs_plus_ns,,,,,0,0,0,0,,,,,,,,,2,7,39,8,,,,,,,,,,,,,,,,,,,,,,,,,,,,,,,,,,,,,,,,,,,,,,,,,,,,,,,,,,1227.4412312000059,1229.017580499989,1226.9343563000439,1229.017580499989,1229.017580499989,1229.017580499989,0.006540499976836145,0.01313149998895824,85,none,0,,,1234.0243044000235,1234.0243044000235,0.0139435000019148,0.0139435000019148,0.01982689998112619,0.05454209999879822,0.061474099988117814,0.10308569995686412,0.11008710000896826,1.0128637999878265,1237.5172795000253,1241.2462982000434,,,,,,,,,,,,,,,,,,,,,,,,,,,,,18,A,2023-12-11_12h11.51.461,gca_avoidance_task,2022.2.4,143.95697412031666,
positions.xlsx,stimuli.xlsx,stimuli/Social1.png,stimuli/Social2.png,stimuli/Nonsocial1.png,stimuli/Nonsocial2.png,,"(-0.7, -0.5)",cs_plus_ns,,,,,0,0,0,0,,,,,,,,,2,8,40,9,,,,,,,,,,,,,,,,,,,,,,,,,,,,,,,,,,,,,,,,,,,,,,,,,,,,,,,,,,1241.753182000015,1243.3781085000373,1241.2462982000434,1243.3781085000373,1243.3781085000373,1243.3781085000373,0.006258099980186671,0.012962999986484647,85,none,0,,,1248.3848639000207,1248.3848639000207,0.01366350002354011,0.01366350002354011,0.019744399993214756,0.05446369998389855,0.06140379997668788,0.10307700000703335,0.10999040002934635,1.0127087000291795,1251.8777796000359,1256.0304232999915,,,,,,,,,,,,,,,,,,,,,,,,,,,,,18,A,2023-12-11_12h11.51.461,gca_avoidance_task,2022.2.4,143.95697412031666,
positions.xlsx,stimuli.xlsx,stimuli/Social1.png,stimuli/Social2.png,stimuli/Nonsocial1.png,stimuli/Nonsocial2.png,,"(-0.7, -0.5)",cs_plus_s,,,,,0,0,0,0,,,,,,,,,2,9,41,1,,,,,,,,,,,,,,,,,,,,,,,,,,,,,,,,,,,,,,,,,,,,,,,,,,,,,,,,,,1256.53733250004,1258.1969647000078,1256.0304232999915,1258.1969647000078,1258.1969647000078,1258.1969647000078,0.005623000033665448,0.012706400011666119,85,none,0,,,1263.2037255000323,1263.2037255000323,0.012882800016086549,0.012882800016086549,0.019516900007147342,0.05421209998894483,0.06117370002903044,0.10278960003051907,0.10972469998523593,1.012481799989473,1266.6966948999907,1270.3840193999931,,,,,,,,,,,,,,,,,,,,,,,,,,,,,18,A,2023-12-11_12h11.51.461,gca_avoidance_task,2022.2.4,143.95697412031666,
positions.xlsx,stimuli.xlsx,stimuli/Social1.png,stimuli/Social2.png,stimuli/Nonsocial1.png,stimuli/Nonsocial2.png,,"(-0.7, -0.5)",cs_minus_ns,,,,,0,0,0,0,,,,,,,,,2,10,42,13,,,,,,,,,,,,,,,,,,,,,,,,,,,,,,,,,,,,,,,,,,,,,,,,,,,,,,,,,,1270.89091810002,1272.1756022000336,1270.3840193999931,1272.1756022000336,1272.1756022000336,1272.1756022000336,0.0065258999820798635,0.01319379999767989,85,none,0,,,1277.1823653000174,1277.1823653000174,0.014550400024745613,0.014550400024745613,0.019934099982492626,0.05460350000066683,0.06155869999201968,0.10325739998370409,0.1101941000088118,1.0129352000076324,1280.6752698000055,1284.9250982000376,,,,,,,,,,,,,,,,,,,,,,,,,,,,,18,A,2023-12-11_12h11.51.461,gca_avoidance_task,2022.2.4,143.95697412031666,
positions.xlsx,stimuli.xlsx,stimuli/Social1.png,stimuli/Social2.png,stimuli/Nonsocial1.png,stimuli/Nonsocial2.png,,"(-0.7, 0.5)",cs_minus_ns,,,,,0,0,0,0,,,,,,,,,2,11,43,12,,,,,,,,,,,,,,,,,,,,,,,,,,,,,,,,,,,,,,,,,,,,,,,,,,,,,,,,,,1285.4320106999949,1286.938932900026,1284.9250982000376,1286.938932900026,1286.938932900026,1286.938932900026,0.00688210001681,0.013105600024573505,85,none,0,,,1291.945648599998,1291.945648599998,0.014403300010599196,0.014403300010599196,0.019892500014975667,0.05453879997367039,0.06149569997796789,0.10317010001745075,0.11010960000567138,1.0128436000086367,1295.438637000043,1299.9315067999996,,,,,,,,,,,,,,,,,,,,,,,,,,,,,18,A,2023-12-11_12h11.51.461,gca_avoidance_task,2022.2.4,143.95697412031666,
positions.xlsx,stimuli.xlsx,stimuli/Social1.png,stimuli/Social2.png,stimuli/Nonsocial1.png,stimuli/Nonsocial2.png,,"(0.7, -0.5)",cs_plus_s,,,,,0,0,0,0,,,,,,,,,2,12,44,3,,,,,,,,,,,,,,,,,,,,,,,,,,,,,,,,,,,,,,,,,,,,,,,,,,,,,,,,,,1300.438373700017,1301.5494326000335,1299.9315067999996,1301.5494326000335,1301.5494326000335,1301.5494326000335,0.005932000000029802,0.013261500047519803,85,none,0,,,1306.5562025000108,1306.5562025000108,0.013294800010044128,0.013294800010044128,0.02006560005247593,0.054716400045435876,0.061662100022658706,0.10330090002389625,0.11026919999858364,1.0129677000222728,1310.049178700021,1313.7850750000216,,,,,,,,,,,,,,,,,,,,,,,,,,,,,18,A,2023-12-11_12h11.51.461,gca_avoidance_task,2022.2.4,143.95697412031666,
positions.xlsx,stimuli.xlsx,stimuli/Social1.png,stimuli/Social2.png,stimuli/Nonsocial1.png,stimuli/Nonsocial2.png,,"(0.7, -0.5)",cs_minus_s,,,,,0,0,0,0,,,,,,,,,2,13,45,7,,,,,,,,,,,,,,,,,,,,,,,,,,,,,,,,,,,,,,,,,,,,,,,,,,,,,,,,,,1314.2919963999884,1315.6738910000422,1313.7850750000216,1315.6738910000422,1315.6738910000422,1315.6738910000422,0.006098499987274408,0.01323360000969842,85,none,0,,,1320.680639600032,1320.680639600032,0.013346099993214011,0.013346099993214011,0.02000329998554662,0.05467959999805316,0.06165420002071187,0.10326589999021962,0.11022339999908581,1.0129731000051834,1324.1735834000283,1328.6664612999884,,,,,,,,,,,,,,,,,,,,,,,,,,,,,18,A,2023-12-11_12h11.51.461,gca_avoidance_task,2022.2.4,143.95697412031666,
positions.xlsx,stimuli.xlsx,stimuli/Social1.png,stimuli/Social2.png,stimuli/Nonsocial1.png,stimuli/Nonsocial2.png,,"(-0.7, 0.5)",cs_minus_s,,,,,0,0,0,0,,,,,,,,,2,14,46,4,,,,,,,,,,,,,,,,,,,,,,,,,,,,,,,,,,,,,,,,,,,,,,,,,,,,,,,,,,1329.1733330000425,1330.6802363999886,1328.6664612999884,1330.6802363999886,1330.6802363999886,1330.6802363999886,0.005971200007479638,0.013322000042535365,85,none,0,,,1335.6869706000434,1335.6869706000434,0.013805199996568263,0.013805199996568263,0.020034899993333966,0.05469960003392771,0.06166770000709221,0.10331340000266209,0.11028770002303645,1.0130046000122093,1339.1799229999888,1343.0061868000193,,,,,,,,,,,,,,,,,,,,,,,,,,,,,18,A,2023-12-11_12h11.51.461,gca_avoidance_task,2022.2.4,143.95697412031666,
positions.xlsx,stimuli.xlsx,stimuli/Social1.png,stimuli/Social2.png,stimuli/Nonsocial1.png,stimuli/Nonsocial2.png,,"(-0.7, 0.5)",cs_plus_s,,,,,0,0,0,0,,,,,,,,,2,15,47,0,,,,,,,,,,,,,,,,,,,,,,,,,,,,,,,,,,,,,,,,,,,,,,,,,,,,,,,,,,1343.5130423000082,1344.749134999991,1343.0061868000193,1344.749134999991,1344.749134999991,1344.749134999991,0.005731599987484515,0.013111200009007007,85,none,0,,,1349.7558648000122,1349.7558648000122,0.013789599994197488,0.013789599994197488,0.0198503999854438,0.054567000013776124,0.06160999997518957,0.10312230000272393,0.11009079997893423,1.0128431000048295,1353.2488138999906,1356.7973087000428,,,,,,,,,,,,,,,,,,,,,,,,,,,,,18,A,2023-12-11_12h11.51.461,gca_avoidance_task,2022.2.4,143.95697412031666,
positions.xlsx,stimuli.xlsx,stimuli/Social1.png,stimuli/Social2.png,stimuli/Nonsocial1.png,stimuli/Nonsocial2.png,,"(-0.7, -0.5)",cs_plus_s,,,,,0,0,0,0,,,,,,,,,3,0,48,1,,,,,,,,,,,,,,,,,,,,,,,,,,,,,,,,,,,,,,,,,,,,,,,,,,,,,,,,,,1357.3041689000092,1358.9846390000312,1356.7973087000428,1358.9846390000312,1358.9846390000312,1358.9846390000312,0.0058524000342004,0.01339670002926141,85,shock,1,[0.3822922999970615],[0.38229610002599657],1359.3666099000257,1359.3666099000257,0.006749499996658415,0.006749499996658415,0.011596199998166412,0.05319390003569424,0.060134800034575164,0.10177220002515242,0.10876380000263453,1.0045658000162803,1362.8665338000283,1366.5121989999898,,,,,,,,,,,,,,,,,,,,,,,,,,,,,18,A,2023-12-11_12h11.51.461,gca_avoidance_task,2022.2.4,143.95697412031666,
positions.xlsx,stimuli.xlsx,stimuli/Social1.png,stimuli/Social2.png,stimuli/Nonsocial1.png,stimuli/Nonsocial2.png,,"(-0.7, 0.5)",cs_plus_s,,,,,0,0,0,0,,,,,,,,,3,1,49,0,,,,,,,,,,,,,,,,,,,,,,,,,,,,,,,,,,,,,,,,,,,,,,,,,,,,,,,,,,1367.0190633999882,1368.5120760000427,1366.5121989999898,1368.5120760000427,1368.5120760000427,1368.5120760000427,0.006058200029656291,0.013084300037007779,85,none,0,,,1373.5188384000212,1373.5188384000212,0.013642300036735833,0.013642300036735833,0.019857500039506704,0.054555000038817525,0.061500600015278906,0.10315969999646768,0.1101255000103265,1.012855600041803,1377.0117533000303,1381.372739500017,,,,,,,,,,,,,,,,,,,,,,,,,,,,,18,A,2023-12-11_12h11.51.461,gca_avoidance_task,2022.2.4,143.95697412031666,
positions.xlsx,stimuli.xlsx,stimuli/Social1.png,stimuli/Social2.png,stimuli/Nonsocial1.png,stimuli/Nonsocial2.png,,"(-0.7, 0.5)",cs_minus_ns,,,,,0,0,0,0,,,,,,,,,3,2,50,12,,,,,,,,,,,,,,,,,,,,,,,,,,,,,,,,,,,,,,,,,,,,,,,,,,,,,,,,,,1381.8796154999873,1383.7823058000067,1381.372739500017,1383.7823058000067,1383.7823058000067,1383.7823058000067,0.007668200007174164,0.013203100010287017,85,none,0,,,1388.7890938000055,1388.7890938000055,0.014906199998222291,0.014906199998222291,0.02002390002598986,0.05467069998849183,0.06162110000150278,0.10328159999335185,0.11023069999646395,1.0129640999948606,1392.2820358999888,1396.2888185000047,,,,,,,,,,,,,,,,,,,,,,,,,,,,,18,A,2023-12-11_12h11.51.461,gca_avoidance_task,2022.2.4,143.95697412031666,
positions.xlsx,stimuli.xlsx,stimuli/Social1.png,stimuli/Social2.png,stimuli/Nonsocial1.png,stimuli/Nonsocial2.png,,"(-0.7, -0.5)",cs_plus_ns,,,,,0,0,0,0,,,,,,,,,3,3,51,9,,,,,,,,,,,,,,,,,,,,,,,,,,,,,,,,,,,,,,,,,,,,,,,,,,,,,,,,,,1396.7956985000055,1398.5456287999987,1396.2888185000047,1398.5456287999987,1398.5456287999987,1398.5456287999987,0.007127800025045872,0.01334780000615865,85,shock,1,[0.20882340002572164],[0.20882719999644905],1398.7609276000294,1398.7609276000294,0.008221699972636998,0.008221699972636998,0.018244099977891892,0.052946100011467934,0.059903199959080666,0.10147749999305233,0.10851509997155517,1.0042527999612503,1402.2538820999907,1406.2954154000035,,,,,,,,,,,,,,,,,,,,,,,,,,,,,18,A,2023-12-11_12h11.51.461,gca_avoidance_task,2022.2.4,143.95697412031666,
positions.xlsx,stimuli.xlsx,stimuli/Social1.png,stimuli/Social2.png,stimuli/Nonsocial1.png,stimuli/Nonsocial2.png,,"(0.7, -0.5)",cs_plus_s,,,,,0,0,0,0,,,,,,,,,3,4,52,3,,,,,,,,,,,,,,,,,,,,,,,,,,,,,,,,,,,,,,,,,,,,,,,,,,,,,,,,,,1406.8022518000216,1408.4271756000235,1406.2954154000035,1408.4271756000235,1408.4271756000235,1408.4271756000235,0.006530200014822185,0.013005400018300861,85,none,0,,,1413.4339267000323,1413.4339267000323,0.013704399985726923,0.013704399985726923,0.01973220001673326,0.05445830000098795,0.061392700008582324,0.10304469999391586,0.1099899000255391,1.0127117999945767,1416.9269179000403,1420.5725355999894,,,,,,,,,,,,,,,,,,,,,,,,,,,,,18,A,2023-12-11_12h11.51.461,gca_avoidance_task,2022.2.4,143.95697412031666,
positions.xlsx,stimuli.xlsx,stimuli/Social1.png,stimuli/Social2.png,stimuli/Nonsocial1.png,stimuli/Nonsocial2.png,,"(-0.7, 0.5)",cs_plus_ns,,,,,0,0,0,0,,,,,,,,,3,5,53,8,,,,,,,,,,,,,,,,,,,,,,,,,,,,,,,,,,,,,,,,,,,,,,,,,,,,,,,,,,1421.0794534999877,1422.8988337999908,1420.5725355999894,1422.8988337999908,1422.8988337999908,1422.8988337999908,0.006789800012484193,0.012848199985455722,85,none,0,,,1427.9055274000275,1427.9055274000275,0.013548199960496277,0.013548199960496277,0.01953649998176843,0.05425200000172481,0.061227299971506,0.10284879995742813,0.10981709999032319,1.012543699995149,1431.3985347000416,1434.9608817000408,,,,,,,,,,,,,,,,,,,,,,,,,,,,,18,A,2023-12-11_12h11.51.461,gca_avoidance_task,2022.2.4,143.95697412031666,
positions.xlsx,stimuli.xlsx,stimuli/Social1.png,stimuli/Social2.png,stimuli/Nonsocial1.png,stimuli/Nonsocial2.png,,"(0.7, 0.5)",cs_minus_s,,,,,0,0,0,0,,,,,,,,,3,6,54,6,,,,,,,,,,,,,,,,,,,,,,,,,,,,,,,,,,,,,,,,,,,,,,,,,,,,,,,,,,1435.467774800025,1436.898275100044,1434.9608817000408,1436.898275100044,1436.898275100044,1436.898275100044,0.0066759999608621,0.013517199957277626,85,none,0,,,1441.9050208000117,1441.9050208000117,0.013885099964682013,0.013885099964682013,0.020339699985925108,0.054951899976003915,0.0619414999964647,0.10357229999499395,0.11055409995606169,1.013286999950651,1445.3979496000102,1449.147856800002,,,,,,,,,,,,,,,,,,,,,,,,,,,,,18,A,2023-12-11_12h11.51.461,gca_avoidance_task,2022.2.4,143.95697412031666,
positions.xlsx,stimuli.xlsx,stimuli/Social1.png,stimuli/Social2.png,stimuli/Nonsocial1.png,stimuli/Nonsocial2.png,,"(0.7, 0.5)",cs_minus_ns,,,,,0,0,0,0,,,,,,,,,3,7,55,14,,,,,,,,,,,,,,,,,,,,,,,,,,,,,,,,,,,,,,,,,,,,,,,,,,,,,,,,,,1449.6547353999922,1451.5852083000354,1449.147856800002,1451.5852083000354,1451.5852083000354,1451.5852083000354,0.007513899996411055,0.012889600009657443,85,none,0,,,1456.59195490001,1456.59195490001,0.014497999974992126,0.014497999974992126,0.019646600005216897,0.054365199990570545,0.061340499960351735,0.10298929997952655,0.10990539996419102,1.0126992999576032,1460.0849328000331,1463.9666957000154,,,,,,,,,,,,,,,,,,,,,,,,,,,,,18,A,2023-12-11_12h11.51.461,gca_avoidance_task,2022.2.4,143.95697412031666,
positions.xlsx,stimuli.xlsx,stimuli/Social1.png,stimuli/Social2.png,stimuli/Nonsocial1.png,stimuli/Nonsocial2.png,,"(-0.7, -0.5)",cs_minus_ns,,,,,0,0,0,0,,,,,,,,,3,8,56,13,,,,,,,,,,,,,,,,,,,,,,,,,,,,,,,,,,,,,,,,,,,,,,,,,,,,,,,,,,1464.4736061000149,1465.7999193000142,1463.9666957000154,1465.7999193000142,1465.7999193000142,1465.7999193000142,0.007118300010915846,0.013146499986760318,90,reward,1,[0.20859669998753816],[0.20860040001571178],1466.0151907000109,1466.0151907000109,0.007901999983005226,0.007901999983005226,0.01837899995734915,0.05310660001123324,0.06006439996417612,0.1017046999768354,0.10863339999923483,1.0044291999656707,1469.508159900026,1473.049681900011,,,,,,,,,,,,,,,,,,,,,,,,,,,,,18,A,2023-12-11_12h11.51.461,gca_avoidance_task,2022.2.4,143.95697412031666,
positions.xlsx,stimuli.xlsx,stimuli/Social1.png,stimuli/Social2.png,stimuli/Nonsocial1.png,stimuli/Nonsocial2.png,,"(-0.7, 0.5)",cs_minus_s,,,,,0,0,0,0,,,,,,,,,3,9,57,4,,,,,,,,,,,,,,,,,,,,,,,,,,,,,,,,,,,,,,,,,,,,,,,,,,,,,,,,,,1473.556550600042,1475.243964000023,1473.049681900011,1475.243964000023,1475.243964000023,1475.243964000023,0.006684199965093285,0.013167599972803146,90,none,0,,,1480.2507891000132,1480.2507891000132,0.012999199971091002,0.012999199971091002,0.01996719994349405,0.05461479997029528,0.06155039998702705,0.10325869999360293,0.11017659999197349,1.0129087999812327,1483.7436715000076,1487.6185573000112,,,,,,,,,,,,,,,,,,,,,,,,,,,,,18,A,2023-12-11_12h11.51.461,gca_avoidance_task,2022.2.4,143.95697412031666,
positions.xlsx,stimuli.xlsx,stimuli/Social1.png,stimuli/Social2.png,stimuli/Nonsocial1.png,stimuli/Nonsocial2.png,,"(0.7, 0.5)",cs_plus_s,,,,,0,0,0,0,,,,,,,,,3,10,58,2,,,,,,,,,,,,,,,,,,,,,,,,,,,,,,,,,,,,,,,,,,,,,,,,,,,,,,,,,,1488.125428200001,1489.5420439000009,1487.6185573000112,1489.5420439000009,1489.5420439000009,1489.5420439000009,0.005792399984784424,0.01314340002136305,90,shock,1,[0.2430937999743037],[0.24309770000400022],1489.7921010000282,1489.7921010000282,0.0073016000096686184,0.0073016000096686184,0.018593699962366372,0.05320749996462837,0.0601551000145264,0.10184529999969527,0.10871959995711222,1.004478899994865,1493.2850244000438,1497.3820517000277,,,,,,,,,,,,,,,,,,,,,,,,,,,,,18,A,2023-12-11_12h11.51.461,gca_avoidance_task,2022.2.4,143.95697412031666,
positions.xlsx,stimuli.xlsx,stimuli/Social1.png,stimuli/Social2.png,stimuli/Nonsocial1.png,stimuli/Nonsocial2.png,,"(-0.7, -0.5)",cs_minus_s,,,,,0,0,0,0,,,,,,,,,3,11,59,5,,,,,,,,,,,,,,,,,,,,,,,,,,,,,,,,,,,,,,,,,,,,,,,,,,,,,,,,,,1497.8889376000152,1499.3125194000313,1497.3820517000277,1499.3125194000313,1499.3125194000313,1499.3125194000313,0.0063714999705553055,0.012923099973704666,95,reward,1,[0.1805060000042431],[0.18050949997268617],1499.499983799993,1499.499983799993,0.006939499988220632,0.006939499988220632,0.018345799995586276,0.05306770000606775,0.059967199980746955,0.10173200001008809,0.10862600000109524,1.004406000021845,1502.9929706000257,1507.2844337000279,,,,,,,,,,,,,,,,,,,,,,,,,,,,,18,A,2023-12-11_12h11.51.461,gca_avoidance_task,2022.2.4,143.95697412031666,
positions.xlsx,stimuli.xlsx,stimuli/Social1.png,stimuli/Social2.png,stimuli/Nonsocial1.png,stimuli/Nonsocial2.png,,"(0.7, -0.5)",cs_minus_s,,,,,0,0,0,0,,,,,,,,,3,12,60,7,,,,,,,,,,,,,,,,,,,,,,,,,,,,,,,,,,,,,,,,,,,,,,,,,,,,,,,,,,1507.791341700009,1509.7148583999951,1507.2844337000279,1509.7148583999951,1509.7148583999951,1509.7148583999951,0.006098699988797307,0.013405799982137978,100,reward,1,[0.2711538000148721],[0.2711573999840766],1509.99265140004,1509.99265140004,0.00714880001032725,0.00714880001032725,0.018582699995022267,0.053292499971576035,0.0602404999663122,0.10190750000765547,0.10885790002066642,1.004622999986168,1513.485590700002,1517.131308800017,,,,,,,,,,,,,,,,,,,,,,,,,,,,,18,A,2023-12-11_12h11.51.461,gca_avoidance_task,2022.2.4,143.95697412031666,
positions.xlsx,stimuli.xlsx,stimuli/Social1.png,stimuli/Social2.png,stimuli/Nonsocial1.png,stimuli/Nonsocial2.png,,"(0.7, 0.5)",cs_plus_ns,,,,,0,0,0,0,,,,,,,,,3,13,61,10,,,,,,,,,,,,,,,,,,,,,,,,,,,,,,,,,,,,,,,,,,,,,,,,,,,,,,,,,,1517.6381578000146,1519.4228178000194,1517.131308800017,1519.4228178000194,1519.4228178000194,1519.4228178000194,0.0069991000345908105,0.013121400028467178,100,none,0,,,1524.429577700037,1524.429577700037,0.014025799988303334,0.014025799988303334,0.019907300011254847,0.05452950001927093,0.061499200004618615,0.10314880002988502,0.1101440999773331,1.0128029999905266,1527.922561799991,1531.6168719000416,,,,,,,,,,,,,,,,,,,,,,,,,,,,,18,A,2023-12-11_12h11.51.461,gca_avoidance_task,2022.2.4,143.95697412031666,
positions.xlsx,stimuli.xlsx,stimuli/Social1.png,stimuli/Social2.png,stimuli/Nonsocial1.png,stimuli/Nonsocial2.png,,"(0.7, -0.5)",cs_plus_ns,,,,,0,0,0,0,,,,,,,,,3,14,62,11,,,,,,,,,,,,,,,,,,,,,,,,,,,,,,,,,,,,,,,,,,,,,,,,,,,,,,,,,,1532.1237249000114,1533.498657100019,1531.6168719000416,1533.498657100019,1533.498657100019,1533.498657100019,0.007407600001897663,0.013203800015617162,100,none,0,,,1538.505426299991,1538.505426299991,0.014158900012262166,0.014158900012262166,0.019989499996881932,0.05462539999280125,0.06158410001080483,0.10319069999968633,0.11014760000398383,1.0129027999937534,1541.9983572000056,1545.5468248000252,,,,,,,,,,,,,,,,,,,,,,,,,,,,,18,A,2023-12-11_12h11.51.461,gca_avoidance_task,2022.2.4,143.95697412031666,
positions.xlsx,stimuli.xlsx,stimuli/Social1.png,stimuli/Social2.png,stimuli/Nonsocial1.png,stimuli/Nonsocial2.png,,"(0.7, -0.5)",cs_minus_ns,,,,,0,0,0,0,,,,,,,,,3,15,63,15,,,,,,,,,,,,,,,,,,,,,,,,,,,,,,,,,,,,,,,,,,,,,,,,,,,,,,,,,,1546.0537290000357,1547.8869897000259,1545.5468248000252,1547.8869897000259,1547.8869897000259,1547.8869897000259,0.006425499974284321,0.013095600006636232,105,reward,1,[1.6319873000029474],[1.631990899972152],1549.5258138999925,1549.5258138999925,0.007237799989525229,0.007237799989525229,0.018298999988473952,0.05286789999809116,0.059820399968884885,0.10152919997926801,0.10842369997408241,1.0042256999877281,1553.0187450000085,1557.0880532999872,,,,,,,,,,,,,,,,,,,,,,,,,,,,,18,A,2023-12-11_12h11.51.461,gca_avoidance_task,2022.2.4,143.95697412031666,
positions.xlsx,stimuli.xlsx,stimuli/Social1.png,stimuli/Social2.png,stimuli/Nonsocial1.png,stimuli/Nonsocial2.png,,"(0.7, 0.5)",cs_minus_ns,,,,,0,0,0,0,,,,,,,,,4,0,64,14,,,,,,,,,,,,,,,,,,,,,,,,,,,,,,,,,,,,,,,,,,,,,,,,,,,,,,,,,,1557.5949532000232,1559.497657800035,1557.0880532999872,1559.497657800035,1559.497657800035,1559.497657800035,0.006485699967015535,0.01306629995815456,110,reward,1,[0.5416139999870211],[0.541617699956987],1560.0462527000345,1560.0462527000345,0.007514600001741201,0.007514600001741201,0.018557599978521466,0.05320709996158257,0.060155400016810745,0.10183890000917017,0.10876410000491887,1.0045706999953836,1563.539214599994,1567.8584764000261,,,,,,,,,,,,,,,,,,,,,,,,,,,,,18,A,2023-12-11_12h11.51.461,gca_avoidance_task,2022.2.4,143.95697412031666,
positions.xlsx,stimuli.xlsx,stimuli/Social1.png,stimuli/Social2.png,stimuli/Nonsocial1.png,stimuli/Nonsocial2.png,,"(0.7, 0.5)",cs_plus_ns,,,,,0,0,0,0,,,,,,,,,4,1,65,10,,,,,,,,,,,,,,,,,,,,,,,,,,,,,,,,,,,,,,,,,,,,,,,,,,,,,,,,,,1568.3653824999928,1569.990302900027,1567.8584764000261,1569.990302900027,1569.990302900027,1569.990302900027,0.006612900004256517,0.013248900009784847,110,shock,1,[0.6043316999566741],[0.6043354999856092],1570.601373100013,1570.601373100013,0.008040899992920458,0.008040899992920458,0.01844429998891428,0.05311809998238459,0.06006089999573305,0.10170069994637743,0.10870129999238998,1.0045086999889463,1574.0943244000082,1577.9483459999901,,,,,,,,,,,,,,,,,,,,,,,,,,,,,18,A,2023-12-11_12h11.51.461,gca_avoidance_task,2022.2.4,143.95697412031666,
positions.xlsx,stimuli.xlsx,stimuli/Social1.png,stimuli/Social2.png,stimuli/Nonsocial1.png,stimuli/Nonsocial2.png,,"(-0.7, 0.5)",cs_plus_ns,,,,,0,0,0,0,,,,,,,,,4,2,66,8,,,,,,,,,,,,,,,,,,,,,,,,,,,,,,,,,,,,,,,,,,,,,,,,,,,,,,,,,,1578.4552186999936,1579.5524097000016,1577.9483459999901,1579.5524097000016,1579.5524097000016,1579.5524097000016,0.006426099978853017,0.013289299968164414,110,none,0,,,1584.5591510999948,1584.5591510999948,0.015003699983935803,0.015003699983935803,0.019994499976746738,0.05467549996683374,0.06164699996588752,0.10332799999741837,0.11034489999292418,1.0129843999748118,1588.0521159000346,1591.8158223000355,,,,,,,,,,,,,,,,,,,,,,,,,,,,,18,A,2023-12-11_12h11.51.461,gca_avoidance_task,2022.2.4,143.95697412031666,
positions.xlsx,stimuli.xlsx,stimuli/Social1.png,stimuli/Social2.png,stimuli/Nonsocial1.png,stimuli/Nonsocial2.png,,"(-0.7, 0.5)",cs_minus_ns,,,,,0,0,0,0,,,,,,,,,4,3,67,12,,,,,,,,,,,,,,,,,,,,,,,,,,,,,,,,,,,,,,,,,,,,,,,,,,,,,,,,,,1592.3227445000084,1593.537967500044,1591.8158223000355,1593.537967500044,1593.537967500044,1593.537967500044,0.006338000006508082,0.013345799990929663,115,reward,1,[0.44491520000156015],[0.4449191000312567],1593.9892984000035,1593.9892984000035,0.008207099977880716,0.008207099977880716,0.01846220000879839,0.05320119997486472,0.06014149996917695,0.10180389997549355,0.10871559998486191,1.0045151999802329,1597.4823127000127,1601.1835884000175,,,,,,,,,,,,,,,,,,,,,,,,,,,,,18,A,2023-12-11_12h11.51.461,gca_avoidance_task,2022.2.4,143.95697412031666,
positions.xlsx,stimuli.xlsx,stimuli/Social1.png,stimuli/Social2.png,stimuli/Nonsocial1.png,stimuli/Nonsocial2.png,,"(0.7, -0.5)",cs_minus_s,,,,,0,0,0,0,,,,,,,,,4,4,68,7,,,,,,,,,,,,,,,,,,,,,,,,,,,,,,,,,,,,,,,,,,,,,,,,,,,,,,,,,,1601.6904562000418,1602.7806666000397,1601.1835884000175,1602.7806666000397,1602.7806666000397,1602.7806666000397,0.005646200035698712,0.013108400045894086,120,reward,1,[0.5695208000252023],[0.5695242000510916],1603.3570218000095,1603.3570218000095,0.007002700003795326,0.007002700003795326,0.018540500022936612,0.05325040000025183,0.060214700002688915,0.10187220002990216,0.10882640001364052,1.0045654000132345,1606.8500055000186,1610.5025812000385,,,,,,,,,,,,,,,,,,,,,,,,,,,,,18,A,2023-12-11_12h11.51.461,gca_avoidance_task,2022.2.4,143.95697412031666,
positions.xlsx,stimuli.xlsx,stimuli/Social1.png,stimuli/Social2.png,stimuli/Nonsocial1.png,stimuli/Nonsocial2.png,,"(-0.7, -0.5)",cs_minus_s,,,,,0,0,0,0,,,,,,,,,4,5,69,5,,,,,,,,,,,,,,,,,,,,,,,,,,,,,,,,,,,,,,,,,,,,,,,,,,,,,,,,,,1611.0094681000337,1612.7872342999908,1610.5025812000385,1612.7872342999908,1612.7872342999908,1612.7872342999908,0.0058234999887645245,0.013187999953515828,125,reward,1,[0.4241967999842018],[0.4242001999518834],1613.2177700999891,1613.2177700999891,0.006946899986360222,0.006946899986360222,0.01837760000489652,0.05301639996469021,0.05995510000502691,0.10163220000686124,0.10858329996699467,1.0043341999989934,1616.7107358000358,1620.9813743000268,,,,,,,,,,,,,,,,,,,,,,,,,,,,,18,A,2023-12-11_12h11.51.461,gca_avoidance_task,2022.2.4,143.95697412031666,
positions.xlsx,stimuli.xlsx,stimuli/Social1.png,stimuli/Social2.png,stimuli/Nonsocial1.png,stimuli/Nonsocial2.png,,"(0.7, 0.5)",cs_plus_s,,,,,0,0,0,0,,,,,,,,,4,6,70,2,,,,,,,,,,,,,,,,,,,,,,,,,,,,,,,,,,,,,,,,,,,,,,,,,,,,,,,,,,1621.48827229999,1623.4395669000223,1620.9813743000268,1623.4395669000223,1623.4395669000223,1623.4395669000223,0.006063600012566894,0.013100799988023937,125,shock,1,[0.4237396999960765],[0.42374340002425015],1623.8701423000311,1623.8701423000311,0.007402300019748509,0.007402300019748509,0.018455800018273294,0.053155500034336,0.06007520004641265,0.10175960004562512,0.10870210005668923,1.004486900055781,1627.3631056000013,1631.175445300003,,,,,,,,,,,,,,,,,,,,,,,,,,,,,18,A,2023-12-11_12h11.51.461,gca_avoidance_task,2022.2.4,143.95697412031666,
positions.xlsx,stimuli.xlsx,stimuli/Social1.png,stimuli/Social2.png,stimuli/Nonsocial1.png,stimuli/Nonsocial2.png,,"(-0.7, 0.5)",cs_minus_s,,,,,0,0,0,0,,,,,,,,,4,7,71,4,,,,,,,,,,,,,,,,,,,,,,,,,,,,,,,,,,,,,,,,,,,,,,,,,,,,,,,,,,1631.6823229999864,1633.6058591000037,1631.175445300003,1633.6058591000037,1633.6058591000037,1633.6058591000037,0.006120199977885932,0.012981700012460351,130,reward,1,[0.1943219000240788],[0.1943256999948062],1633.8072600000305,1633.8072600000305,0.007332899956963956,0.007332899956963956,0.01830339996377006,0.05296849994920194,0.05991419998463243,0.10160489997360855,0.10855449998052791,1.0043010999797843,1637.3001899000374,1641.7930616000085,,,,,,,,,,,,,,,,,,,,,,,,,,,,,18,A,2023-12-11_12h11.51.461,gca_avoidance_task,2022.2.4,143.95697412031666,
positions.xlsx,stimuli.xlsx,stimuli/Social1.png,stimuli/Social2.png,stimuli/Nonsocial1.png,stimuli/Nonsocial2.png,,"(-0.7, 0.5)",cs_plus_s,,,,,0,0,0,0,,,,,,,,,4,8,72,0,,,,,,,,,,,,,,,,,,,,,,,,,,,,,,,,,,,,,,,,,,,,,,,,,,,,,,,,,,1642.299942200014,1644.1540585000184,1641.7930616000085,1644.1540585000184,1644.1540585000184,1644.1540585000184,0.006202299962751567,0.013190899975597858,130,none,0,,,1649.1608073000098,1649.1608073000098,0.013298399979248643,0.013298399979248643,0.01994089997606352,0.054618800000753254,0.06156349997036159,0.10320199996931478,0.11013799998909235,1.0128671999555081,1652.65371340001,1656.493907600001,,,,,,,,,,,,,,,,,,,,,,,,,,,,,18,A,2023-12-11_12h11.51.461,gca_avoidance_task,2022.2.4,143.95697412031666,
positions.xlsx,stimuli.xlsx,stimuli/Social1.png,stimuli/Social2.png,stimuli/Nonsocial1.png,stimuli/Nonsocial2.png,,"(0.7, -0.5)",cs_plus_ns,,,,,0,0,0,0,,,,,,,,,4,9,73,11,,,,,,,,,,,,,,,,,,,,,,,,,,,,,,,,,,,,,,,,,,,,,,,,,,,,,,,,,,1657.0007520000217,1658.9312063000398,1656.493907600001,1658.9312063000398,1658.9312063000398,1658.9312063000398,0.006402999977581203,0.01341299997875467,130,none,0,,,1663.9380128000048,1663.9380128000048,0.014480399957392365,0.014480399957392365,0.020202799991238862,0.054834999958984554,0.061822099960409105,0.10353829996893182,0.1104357999865897,1.0131638000020757,1667.43090820004,1671.847428500012,,,,,,,,,,,,,,,,,,,,,,,,,,,,,18,A,2023-12-11_12h11.51.461,gca_avoidance_task,2022.2.4,143.95697412031666,
positions.xlsx,stimuli.xlsx,stimuli/Social1.png,stimuli/Social2.png,stimuli/Nonsocial1.png,stimuli/Nonsocial2.png,,"(0.7, -0.5)",cs_plus_s,,,,,0,0,0,0,,,,,,,,,4,10,74,3,,,,,,,,,,,,,,,,,,,,,,,,,,,,,,,,,,,,,,,,,,,,,,,,,,,,,,,,,,1672.3543362999917,1673.9514889999991,1671.847428500012,1673.9514889999991,1673.9514889999991,1673.9514889999991,0.006139899953268468,0.0133712999522686,130,none,0,,,1678.9582431000308,1678.9582431000308,0.01404549996368587,0.01404549996368587,0.02011569996830076,0.054755099990870804,0.06171959999483079,0.10343499999726191,0.11038259998895228,1.0131114999530837,1682.4512060999987,1686.6871323999949,,,,,,,,,,,,,,,,,,,,,,,,,,,,,18,A,2023-12-11_12h11.51.461,gca_avoidance_task,2022.2.4,143.95697412031666,
positions.xlsx,stimuli.xlsx,stimuli/Social1.png,stimuli/Social2.png,stimuli/Nonsocial1.png,stimuli/Nonsocial2.png,,"(0.7, 0.5)",cs_minus_s,,,,,0,0,0,0,,,,,,,,,4,11,75,6,,,,,,,,,,,,,,,,,,,,,,,,,,,,,,,,,,,,,,,,,,,,,,,,,,,,,,,,,,1687.1940060000052,1688.6939730999875,1686.6871323999949,1688.6939730999875,1688.6939730999875,1688.6939730999875,0.005968399986159056,0.013088800013065338,135,reward,1,[0.5347762000164948],[0.5347798999864608],1689.2356542000198,1689.2356542000198,0.007245499989949167,0.007245499989949167,0.01824300002772361,0.05283970001619309,0.05981519998749718,0.10145259997807443,0.10842409997712821,1.0042036999948323,1692.7285133000114,1696.7214593000244,,,,,,,,,,,,,,,,,,,,,,,,,,,,,18,A,2023-12-11_12h11.51.461,gca_avoidance_task,2022.2.4,143.95697412031666,
positions.xlsx,stimuli.xlsx,stimuli/Social1.png,stimuli/Social2.png,stimuli/Nonsocial1.png,stimuli/Nonsocial2.png,,"(-0.7, -0.5)",cs_minus_ns,,,,,0,0,0,0,,,,,,,,,4,12,76,13,,,,,,,,,,,,,,,,,,,,,,,,,,,,,,,,,,,,,,,,,,,,,,,,,,,,,,,,,,1697.2283632000326,1698.3602463999996,1696.7214593000244,1698.3602463999996,1698.3602463999996,1698.3602463999996,0.006644600012805313,0.013077099982183427,140,reward,1,[0.6597233999636956],[0.6597270999918692],1699.0269170000101,1699.0269170000101,0.007823099964298308,0.007823099964298308,0.01857640000525862,0.053221500013023615,0.060207400005310774,0.10187710000900552,0.10883350000949576,1.0046137999743223,1702.519872600038,1706.5613608999993,,,,,,,,,,,,,,,,,,,,,,,,,,,,,18,A,2023-12-11_12h11.51.461,gca_avoidance_task,2022.2.4,143.95697412031666,
positions.xlsx,stimuli.xlsx,stimuli/Social1.png,stimuli/Social2.png,stimuli/Nonsocial1.png,stimuli/Nonsocial2.png,,"(0.7, -0.5)",cs_minus_ns,,,,,0,0,0,0,,,,,,,,,4,13,77,15,,,,,,,,,,,,,,,,,,,,,,,,,,,,,,,,,,,,,,,,,,,,,,,,,,,,,,,,,,1707.0682268000091,1708.5751477000304,1706.5613608999993,1708.5751477000304,1708.5751477000304,1708.5751477000304,0.00736360001610592,0.013023700041230768,145,reward,1,[0.6389740000013262],[0.6389776000287384],1709.2209336000378,1709.2209336000378,0.00785850000102073,0.00785850000102073,0.0182117999647744,0.0528929999563843,0.059854699997231364,0.1015056999749504,0.10846699995454401,1.0042757999617606,1712.7138831000193,1716.64431589999,,,,,,,,,,,,,,,,,,,,,,,,,,,,,18,A,2023-12-11_12h11.51.461,gca_avoidance_task,2022.2.4,143.95697412031666,
positions.xlsx,stimuli.xlsx,stimuli/Social1.png,stimuli/Social2.png,stimuli/Nonsocial1.png,stimuli/Nonsocial2.png,,"(-0.7, -0.5)",cs_plus_s,,,,,0,0,0,0,,,,,,,,,4,14,78,1,,,,,,,,,,,,,,,,,,,,,,,,,,,,,,,,,,,,,,,,,,,,,,,,,,,,,,,,,,1717.1512120999978,1718.227526600007,1716.64431589999,1718.227526600007,1718.227526600007,1718.227526600007,0.006499600014649332,0.012997800018638372,145,none,0,,,1723.234262700018,1723.234262700018,0.013068100030068308,0.013068100030068308,0.01980910002021119,0.05445680004777387,0.061441300029400736,0.1031018000212498,0.1099965000175871,1.0127753000124358,1726.7272322000354,1730.2687493000412,,,,,,,,,,,,,,,,,,,,,,,,,,,,,18,A,2023-12-11_12h11.51.461,gca_avoidance_task,2022.2.4,143.95697412031666,
positions.xlsx,stimuli.xlsx,stimuli/Social1.png,stimuli/Social2.png,stimuli/Nonsocial1.png,stimuli/Nonsocial2.png,,"(-0.7, -0.5)",cs_plus_ns,,,,,0,0,0,0,,,,,,,,,4,15,79,9,,,,,,,,,,,,,,,,,,,,,,,,,,,,,,,,,,,,,,,,,,,,,,,,,,,,,,,,,,1730.7756350000273,1732.2755983000388,1730.2687493000412,1732.2755983000388,1732.2755983000388,1732.2755983000388,0.006988499953877181,0.013195599953178316,145,none,0,,,1737.282360000012,1737.282360000012,0.014087499992456287,0.014087499992456287,0.01999109995085746,0.05463959998451173,0.06161409994820133,0.1032244999660179,0.1101691999938339,1.012903800001368,1740.7753399999929,1744.2404408000293,,,,,,,,,,,,,,,,,,,,,,,,,,,,,18,A,2023-12-11_12h11.51.461,gca_avoidance_task,2022.2.4,143.95697412031666,
