posFile,stimFile,cs_plus_s,cs_minus_s,cs_plus_ns,cs_minus_ns,stimtype,position,trialtype,trials_threshold.thisRepN,trials_threshold.thisTrialN,trials_threshold.thisN,trials_threshold.thisIndex,blocks.thisRepN,blocks.thisTrialN,blocks.thisN,blocks.thisIndex,ratingtrials1.thisRepN,ratingtrials1.thisTrialN,ratingtrials1.thisN,ratingtrials1.thisIndex,learning_trials.thisRepN,learning_trials.thisTrialN,learning_trials.thisN,learning_trials.thisIndex,trials.thisRepN,trials.thisTrialN,trials.thisN,trials.thisIndex,ratingtrials2.thisRepN,ratingtrials2.thisTrialN,ratingtrials2.thisN,ratingtrials2.thisIndex,testtrials.thisRepN,testtrials.thisTrialN,testtrials.thisN,testtrials.thisIndex,ratingtrials3.thisRepN,ratingtrials3.thisTrialN,ratingtrials3.thisN,ratingtrials3.thisIndex,textStart.started,spaceStart.started,spaceStart.keys,spaceStart.rt,textPainThreshold.started,spacePainThreshold.started,spacePainThreshold.keys,spacePainThreshold.rt,textRateT.started,text_noPainT.started,text_slightPainT.started,text_highPainT.started,sliderPainT.started,keys_PainT.started,sliderPainT.response,sliderPainT.rt,keys_PainT.keys,keys_PainT.rt,fixcrossT.started,portShock1T.started,portShock1T.stopped,portShock2T.started,portShock2T.stopped,portShock3T.started,portShock3T.stopped,fixcrossT.stopped,text_ETCalibration.started,spaceETCalibration.started,spaceETCalibration.keys,spaceETCalibration.rt,textStartExp.started,spaceStartExp.started,spaceStartExp.keys,spaceStartExp.rt,imageRating.started,sliderStim.started,spaceStim.started,sliderStim.response,sliderStim.rt,spaceStim.keys,spaceStim.rt,textStartTask.started,spaceStartTask.started,spaceStartTask.keys,spaceStartTask.rt,blankScreen.started,blankScreen.stopped,fixcross.started,image.started,roi.started,gazeCursor.started,portImage.started,portImage.stopped,score,outcome,roi.numLooks,roi.timesOn,roi.timesOff,imageFeedback.started,gazeCursor_Feedback.started,soundFeedback.started,portShock1.started,portShock1.stopped,portShock2.started,portShock2.stopped,portShock3.started,portShock3.stopped,soundFeedback.stopped,fixcrossE.started,fixcrossE.stopped,textRepeatTask.started,textboxRepeatInstruction.started,textRepeatSpace.started,spaceRepeatTask.started,spaceRepeatTask.keys,spaceRepeatTask.rt,textRate.started,text_noPain.started,text_slightPain.started,text_highPain.started,sliderPain.started,textSpacePain.started,spacePain.started,sliderPain.response,sliderPain.rt,spacePain.keys,spacePain.rt,textTestInstr.started,spaceTestInstr.started,spaceTestInstr.keys,spaceTestInstr.rt,imageTest.started,roiTest.started,portTestImage.started,portTestImage.stopped,roiTest.numLooks,roiTest.timesOn,roiTest.timesOff,participant,group,date,expName,psychopyVersion,frameRate,
,,,,,,,,,,,,,,,,,,,,,,,,,,,,,,,,,,,,,,,,,133.55734780000057,133.55734780000057,space,3.4271834999963176,,,,,,,,,,,,,,,,,,,,,,,,,,,,,,,,,,,,,,,,,,,,,,,,,,,,,,,,,,,,,,,,,,,,,,,,,,,,,,,,,,,,,,,,,,,,,,,10,A,2023-12-08_08h21.21.377,gca_avoidance_task,2022.2.4,144.012120068487,
,,,,,,,,,,,,,,,,,,,,,,,,,,,,,,,,,,,,,,,,,,,,,136.99468259999412,136.99468259999412,space,2.0532659999880707,,,,,,,,,,,,,,,,,,,,,,,,,,,,,,,,,,,,,,,,,,,,,,,,,,,,,,,,,,,,,,,,,,,,,,,,,,,,,,,,,,,,,,,,,,,10,A,2023-12-08_08h21.21.377,gca_avoidance_task,2022.2.4,144.012120068487,
,,,,,,,,,0,0,0,0,,,,,,,,,,,,,,,,,,,,,,,,,,,,,,,,,,,,,140.16123820000212,140.16123820000212,140.16123820000212,140.16123820000212,140.16123820000212,140.16123820000212,None,None,s,4.599259599999641,145.39712229999714,0.10142089999862947,0.10844229999929667,0.15004860000044573,0.15701270000135992,0.20563559999573044,0.21255189999646973,146.17491210000298,,,,,,,,,,,,,,,,,,,,,,,,,,,,,,,,,,,,,,,,,,,,,,,,,,,,,,,,,,,,,,,,,,,,,,,,,10,A,2023-12-08_08h21.21.377,gca_avoidance_task,2022.2.4,144.012120068487,
,,,,,,,,,1,0,1,0,,,,,,,,,,,,,,,,,,,,,,,,,,,,,,,,,,,,,146.17491210000298,146.17491210000298,146.17491210000298,146.17491210000298,146.17491210000298,146.17491210000298,0.0,6.112201600000844,s,12.408965399983572,159.12572979999823,0.10155340000346769,0.10848370000894647,0.15013069999986328,0.15706779999891296,0.2057033000019146,0.21263080000062473,160.0215540000063,,,,,,,,,,,,,,,,,,,,,,,,,,,,,,,,,,,,,,,,,,,,,,,,,,,,,,,,,,,,,,,,,,,,,,,,,10,A,2023-12-08_08h21.21.377,gca_avoidance_task,2022.2.4,144.012120068487,
,,,,,,,,,2,0,2,0,,,,,,,,,,,,,,,,,,,,,,,,,,,,,,,,,,,,,160.0215540000063,160.0215540000063,160.0215540000063,160.0215540000063,160.0215540000063,160.0215540000063,1.0,1.9729930000030436,s,7.219130099998438,167.77121669999906,0.09942620000219904,0.10633149999193847,0.1549032999901101,0.16188230000261683,0.20348509999166708,0.2104503000009572,168.54203419999976,,,,,,,,,,,,,,,,,,,,,,,,,,,,,,,,,,,,,,,,,,,,,,,,,,,,,,,,,,,,,,,,,,,,,,,,,10,A,2023-12-08_08h21.21.377,gca_avoidance_task,2022.2.4,144.012120068487,
,,,,,,,,,3,0,3,0,,,,,,,,,,,,,,,,,,,,,,,,,,,,,,,,,,,,,168.54203419999976,168.54203419999976,168.54203419999976,168.54203419999976,168.54203419999976,168.54203419999976,2.0,2.5198877999937395,s,6.282190899990383,175.52092249999987,0.10341219999827445,0.11033229999884497,0.15200620000541676,0.15899219999846537,0.20059550000587478,0.20755440001084935,176.29170980000345,,,,,,,,,,,,,,,,,,,,,,,,,,,,,,,,,,,,,,,,,,,,,,,,,,,,,,,,,,,,,,,,,,,,,,,,,10,A,2023-12-08_08h21.21.377,gca_avoidance_task,2022.2.4,144.012120068487,
,,,,,,,,,4,0,4,0,,,,,,,,,,,,,,,,,,,,,,,,,,,,,,,,,,,,,176.29170980000345,176.29170980000345,176.29170980000345,176.29170980000345,176.29170980000345,176.29170980000345,3.0,2.928511400008574,s,6.715748099988559,183.54835640000238,0.09933040000032634,0.10629929999413434,0.15489200000592973,0.16185000000405125,0.2035215999931097,0.21046329999808222,184.3261738000001,,,,,,,,,,,,,,,,,,,,,,,,,,,,,,,,,,,,,,,,,,,,,,,,,,,,,,,,,,,,,,,,,,,,,,,,,10,A,2023-12-08_08h21.21.377,gca_avoidance_task,2022.2.4,144.012120068487,
,,,,,,,,,5,0,5,0,,,,,,,,,,,,,,,,,,,,,,,,,,,,,,,,,,,,,184.3261738000001,184.3261738000001,184.3261738000001,184.3261738000001,184.3261738000001,184.3261738000001,5.0,1.342085299998871,s,7.049226799994358,191.95079560000158,0.10552199999801815,0.11250679999648128,0.15413909999188036,0.16105439999955706,0.20271959999809042,0.20965679999790154,,,,,,,,,,,,,,,,,,,,,,,,,,,,,,,,,,,,,,,,,,,,,,,,,,,,,,,,,,,,,,,,,,,,,,,,,,10,A,2023-12-08_08h21.21.377,gca_avoidance_task,2022.2.4,144.012120068487,
,,,,,,,,,6,0,6,0,,,,,,,,,,,,,,,,,,,,,,,,,,,,,,,,,,,,,192.72159620000457,192.72159620000457,192.72159620000457,192.72159620000457,192.72159620000457,192.72159620000457,5.0,1.2768311999971047,s,5.719268799992278,198.9783013999986,0.10257289999572095,0.10950839999713935,0.15118819999042898,0.15810479999345262,0.19975309999426827,0.20674519999010954,199.74909319999279,,,,,,,,,,,,,,,,,,,,,,,,,,,,,,,,,,,,,,,,,,,,,,,,,,,,,,,,,,,,,,,,,,,,,,,,,10,A,2023-12-08_08h21.21.377,gca_avoidance_task,2022.2.4,144.012120068487,
,,,,,,,,,7,0,7,0,,,,,,,,,,,,,,,,,,,,,,,,,,,,,,,,,,,,,199.74909319999279,199.74909319999279,199.74909319999279,199.74909319999279,199.74909319999279,199.74909319999279,6.0,0.7793281000049319,s,5.787139299995033,206.22107709999545,0.1022986000025412,0.10925500000303145,0.1509061999968253,0.15783989999908954,0.1995281999988947,0.2064610000088578,206.99190540000563,,,,,,,,,,,,,,,,,,,,,,,,,,,,,,,,,,,,,,,,,,,,,,,,,,,,,,,,,,,,,,,,,,,,,,,,,10,A,2023-12-08_08h21.21.377,gca_avoidance_task,2022.2.4,144.012120068487,
,,,,,,,,,8,0,8,0,,,,,,,,,,,,,,,,,,,,,,,,,,,,,,,,,,,,,206.99190540000563,206.99190540000563,206.99190540000563,206.99190540000563,206.99190540000563,206.99190540000563,7.0,3.9057558000058634,s,7.944765399995958,215.48457719999715,0.1001414000056684,0.10708970000268891,0.15571199999249075,0.16262770000321325,0.20428950000496116,0.2112312999961432,216.26234089999343,,,,,,,,,,,,,,,,,,,,,,,,,,,,,,,,,,,,,,,,,,,,,,,,,,,,,,,,,,,,,,,,,,,,,,,,,10,A,2023-12-08_08h21.21.377,gca_avoidance_task,2022.2.4,144.012120068487,
,,,,,,,,,9,0,9,0,,,,,,,,,,,,,,,,,,,,,,,,,,,,,,,,,,,,,216.26234089999343,216.26234089999343,216.26234089999343,216.26234089999343,216.26234089999343,216.26234089999343,7.0,2.9780179999943357,s,7.841247199990903,224.63699660000566,0.10570430000370834,0.11266830000386108,0.1543264000065392,0.1612734999944223,0.20291150000412017,0.20982319999893662,,,,,,,,,,,,,,,,,,,,,,,,,,,,,,,,,,,,,,,,,,,,,,,,,,,,,,,,,,,,,,,,,,,,,,,,,,10,A,2023-12-08_08h21.21.377,gca_avoidance_task,2022.2.4,144.012120068487,
,,,,,,,,,10,0,10,0,,,,,,,,,,,,,,,,,,,,,,,,,,,,,,,,,,,,,225.4147105000011,225.4147105000011,225.4147105000011,225.4147105000011,225.4147105000011,225.4147105000011,7.0,2.952817999990657,s,7.7291541999875335,233.69215820000682,0.10255510000570212,0.10953050000534859,0.15117630000167992,0.15812089999963064,0.19987350000883453,0.20678459999908227,234.49771369999507,,,,,,,,,,,,,,,,,,,,,,,,,,,,,,,,,,,,,,,,,,,,,,,,,,,,,,,,,,,,,,,,,,,,,,,,,10,A,2023-12-08_08h21.21.377,gca_avoidance_task,2022.2.4,144.012120068487,
,,,,,,,,,11,0,11,0,,,,,,,,,,,,,,,,,,,,,,,,,,,,,,,,,,,,,234.49771369999507,234.49771369999507,234.49771369999507,234.49771369999507,234.49771369999507,234.49771369999507,6.0,1.3546158999961335,s,7.118582199997036,242.15711149999697,0.10431480000261217,0.11130859999684617,0.1529283999989275,0.1599006000033114,0.2015809000004083,0.2085030000016559,,,,,,,,,,,,,,,,,,,,,,,,,,,,,,,,,,,,,,,,,,,,,,,,,,,,,,,,,,,,,,,,,,,,,,,,,,10,A,2023-12-08_08h21.21.377,gca_avoidance_task,2022.2.4,144.012120068487,
,,,,,,,,,12,0,12,0,,,,,,,,,,,,,,,,,,,,,,,,,,,,,,,,,,,,,242.92788930000097,242.92788930000097,242.92788930000097,242.92788930000097,242.92788930000097,242.92788930000097,6.0,3.305423800004064,s,10.567773699993268,254.03858209999453,0.10069960000691935,0.10763779999979306,0.149265900006867,0.15619979999610223,0.20481920000747778,0.21182739999494515,254.80936780000047,,,,,,,,,,,,,,,,,,,,,,,,,,,,,,,,,,,,,,,,,,,,,,,,,,,,,,,,,,,,,,,,,,,,,,,,,10,A,2023-12-08_08h21.21.377,gca_avoidance_task,2022.2.4,144.012120068487,
,,,,,,,,,13,0,13,0,,,,,,,,,,,,,,,,,,,,,,,,,,,,,,,,,,,,,254.80936780000047,254.80936780000047,254.80936780000047,254.80936780000047,254.80936780000047,254.80936780000047,4.0,7.120639400003711,s,12.590435099991737,267.9338809000037,0.10323290000087582,0.1101836000016192,0.15184330000192858,0.1588060000067344,0.20043440000154078,0.20737600000575185,268.7116095999954,,,,,,,,,,,,,,,,,,,,,,,,,,,,,,,,,,,,,,,,,,,,,,,,,,,,,,,,,,,,,,,,,,,,,,,,,10,A,2023-12-08_08h21.21.377,gca_avoidance_task,2022.2.4,144.012120068487,
,,,,,,,,,14,0,14,0,,,,,,,,,,,,,,,,,,,,,,,,,,,,,,,,,,,,,268.7116095999954,268.7116095999954,268.7116095999954,268.7116095999954,268.7116095999954,268.7116095999954,5.0,3.7802163000014843,s,10.112418699995033,279.3708972000022,0.09995370000251569,0.10692759999074042,0.15548909999779426,0.16243060000124387,0.20409519999520853,0.21104969999578316,280.1486292000045,,,,,,,,,,,,,,,,,,,,,,,,,,,,,,,,,,,,,,,,,,,,,,,,,,,,,,,,,,,,,,,,,,,,,,,,,10,A,2023-12-08_08h21.21.377,gca_avoidance_task,2022.2.4,144.012120068487,
,,,,,,,,,15,0,15,0,,,,,,,,,,,,,,,,,,,,,,,,,,,,,,,,,,,,,280.1486292000045,280.1486292000045,280.1486292000045,280.1486292000045,280.1486292000045,280.1486292000045,5.0,1.5151007999957073,s,5.995028199991793,286.6830850999977,0.10084250000363681,0.10781490000954363,0.14946380000037607,0.15641199999663513,0.20500120001088362,0.21194940000714269,287.4608264999988,,,,,,,,,,,,,,,,,,,,,,,,,,,,,,,,,,,,,,,,,,,,,,,,,,,,,,,,,,,,,,,,,,,,,,,,,10,A,2023-12-08_08h21.21.377,gca_avoidance_task,2022.2.4,144.012120068487,
,,,,,,,,,16,0,16,0,,,,,,,,,,,,,,,,,,,,,,,,,,,,,,,,,,,,,287.4608264999988,287.4608264999988,287.4608264999988,287.4608264999988,287.4608264999988,287.4608264999988,6.0,1.7494043000042439,s,5.699282999994466,293.6967083000054,0.10037859999283683,0.10732099998858757,0.15597589999379124,0.1629179000010481,0.20457839999289718,0.211497899988899,294.47442529999535,,,,,,,,,,,,,,,,,,,,,,,,,,,,,,,,,,,,,,,,,,,,,,,,,,,,,,,,,,,,,,,,,,,,,,,,,10,A,2023-12-08_08h21.21.377,gca_avoidance_task,2022.2.4,144.012120068487,
,,,,,,,,,17,0,17,0,,,,,,,,,,,,,,,,,,,,,,,,,,,,,,,,,,,,,294.47442529999535,294.47442529999535,294.47442529999535,294.47442529999535,294.47442529999535,294.47442529999535,7.0,3.125194399995962,s,11.397690700003295,306.41147120000096,0.10116840001137462,0.10809180000796914,0.14973879999888595,0.15668910001113545,0.2052925000025425,0.21223650001047645,307.1822561000008,,,,,,,,,,,,,,,,,,,,,,,,,,,,,,,,,,,,,,,,,,,,,,,,,,,,,,,,,,,,,,,,,,,,,,,,,10,A,2023-12-08_08h21.21.377,gca_avoidance_task,2022.2.4,144.012120068487,
,,,,,,,,,18,0,18,0,,,,,,,,,,,,,,,,,,,,,,,,,,,,,,,,,,,,,307.1822561000008,307.1822561000008,307.1822561000008,307.1822561000008,307.1822561000008,307.1822561000008,6.0,2.2032668000028934,s,31.62636979999661,339.4309702000028,0.10096880000492092,0.10791940000490285,0.14957579999463633,0.15654900000663474,0.20513450000726152,0.2120957000006456,340.2018042999989,,,,,,,,,,,,,,,,,,,,,,,,,,,,,,,,,,,,,,,,,,,,,,,,,,,,,,,,,,,,,,,,,,,,,,,,,10,A,2023-12-08_08h21.21.377,gca_avoidance_task,2022.2.4,144.012120068487,
,,,,,,,,,19,0,19,0,,,,,,,,,,,,,,,,,,,,,,,,,,,,,,,,,,,,,340.2018042999989,340.2018042999989,340.2018042999989,340.2018042999989,340.2018042999989,340.2018042999989,6.0,5.79482929999358,g,33.406081299996,374.15179309999803,,,,,,,,,,,,,,,,,,,,,,,,,,,,,,,,,,,,,,,,,,,,,,,,,,,,,,,,,,,,,,,,,,,,,,,,,,,,,,,,10,A,2023-12-08_08h21.21.377,gca_avoidance_task,2022.2.4,144.012120068487,
,,,,,,,,,,,,,,,,,,,,,,,,,,,,,,,,,,,,,,,,,,,,,,,,,,,,,,,,,,,,,,,,,,,374.15179309999803,374.15179309999803,space,5.5932341000007,,,,,,,,,,,,,,,,,,,,,,,,,,,,,,,,,,,,,,,,,,,,,,,,,,,,,,,,,,,,,,,,,,,,,10,A,2023-12-08_08h21.21.377,gca_avoidance_task,2022.2.4,144.012120068487,
positions.xlsx,stimuli.xlsx,stimuli/Social1.png,stimuli/Social2.png,stimuli/Nonsocial1.png,stimuli/Nonsocial2.png,cs_plus_ns,,,,,,,0,0,0,0,0,0,0,1,,,,,,,,,,,,,,,,,,,,,,,,,,,,,,,,,,,,,,,,,,,,,,,,,,,553.053668099994,553.053668099994,space,10.147008699990693,563.2553096000047,563.2553096000047,574.1090209999966,5.0,10.851494000002276,space,1.4034689999971306,,,,,,,,,,,,,,,,,,,,,,,,,,,,,,,,,,,,,,,,,,,,,,,,,,,,,,,,,,10,A,2023-12-08_08h21.21.377,gca_avoidance_task,2022.2.4,144.012120068487,
positions.xlsx,stimuli.xlsx,stimuli/Social1.png,stimuli/Social2.png,stimuli/Nonsocial1.png,stimuli/Nonsocial2.png,cs_plus_s,,,,,,,0,0,0,0,0,1,1,0,,,,,,,,,,,,,,,,,,,,,,,,,,,,,,,,,,,,,,,,,,,,,,,,,,,,,,,575.5464961999969,575.5464961999969,580.2337936999975,5.0,4.676537000006647,space,1.7107792999886442,,,,,,,,,,,,,,,,,,,,,,,,,,,,,,,,,,,,,,,,,,,,,,,,,,,,,,,,,,10,A,2023-12-08_08h21.21.377,gca_avoidance_task,2022.2.4,144.012120068487,
positions.xlsx,stimuli.xlsx,stimuli/Social1.png,stimuli/Social2.png,stimuli/Nonsocial1.png,stimuli/Nonsocial2.png,cs_minus_ns,,,,,,,0,0,0,0,0,2,2,3,,,,,,,,,,,,,,,,,,,,,,,,,,,,,,,,,,,,,,,,,,,,,,,,,,,,,,,581.9767576000013,581.9767576000013,584.6641454000055,5.0,2.6772014000016497,space,3.7608308999915607,,,,,,,,,,,,,,,,,,,,,,,,,,,,,,,,,,,,,,,,,,,,,,,,,,,,,,,,,,10,A,2023-12-08_08h21.21.377,gca_avoidance_task,2022.2.4,144.012120068487,
positions.xlsx,stimuli.xlsx,stimuli/Social1.png,stimuli/Social2.png,stimuli/Nonsocial1.png,stimuli/Nonsocial2.png,cs_minus_s,,,,,,,0,0,0,0,0,3,3,2,,,,,,,,,,,,,,,,,,,,,,,,,,,,,,,,,,,,,,,,,,,,,,,,,,,,,,,588.4626075999986,588.4626075999986,592.9555048000038,4.0,5.041349300008733,space,2.0612661999912234,,,,,,,,,,,,,,,,,,,,,,,,,,,,,,,,,,,,,,,,,,,,,,,,,,,,,,,,,,10,A,2023-12-08_08h21.21.377,gca_avoidance_task,2022.2.4,144.012120068487,
positions.xlsx,stimuli.xlsx,stimuli/Social1.png,stimuli/Social2.png,stimuli/Nonsocial1.png,stimuli/Nonsocial2.png,,"(-0.7, 0.5)",cs_plus_ns,,,,,0,0,0,0,,,,,0,0,0,8,,,,,,,,,,,,,,,,,,,,,,,,,,,,,,,,,,,,,,,,,,,,,,,,,,,,,,,,,,595.0248329000024,595.0248329000024,space,39.18424409998988,637.1551028999966,638.8008575999993,636.6551515000028,638.8008575999993,638.8008575999993,638.8008575999993,0.015209700010018423,0.020047300000442192,0,shock,1,[0.27783970000746194],[0.27784340000653174],639.092516100005,639.092516100005,0.02182840000023134,0.02182840000023134,0.032446199998958036,0.05323229999339674,0.06017289998999331,0.1018259999982547,0.10879309999290854,1.0185033999878215,642.5716282000067,646.1061533000029,,,,,,,,,,,,,,,,,,,,,,,,,,,,,10,A,2023-12-08_08h21.21.377,gca_avoidance_task,2022.2.4,144.012120068487,
positions.xlsx,stimuli.xlsx,stimuli/Social1.png,stimuli/Social2.png,stimuli/Nonsocial1.png,stimuli/Nonsocial2.png,,"(-0.7, 0.5)",cs_minus_s,,,,,0,0,0,0,,,,,0,1,1,4,,,,,,,,,,,,,,,,,,,,,,,,,,,,,,,,,,,,,,,,,,,,,,,,,,,,,,,,,,,,,,646.6130357999937,648.182421599995,646.1061533000029,648.182421599995,648.182421599995,648.182421599995,0.006352399999741465,0.013105100006214343,5,reward,1,[0.16698050001286902],[0.16698430001270026],648.3560461000015,648.3560461000015,0.00859919999493286,0.00859919999493286,0.018177399993874133,0.05288629999267869,0.059830300000612624,0.10143669998797122,0.10840829998778645,1.0042142999882344,651.8489558000001,656.1890780999966,,,,,,,,,,,,,,,,,,,,,,,,,,,,,10,A,2023-12-08_08h21.21.377,gca_avoidance_task,2022.2.4,144.012120068487,
positions.xlsx,stimuli.xlsx,stimuli/Social1.png,stimuli/Social2.png,stimuli/Nonsocial1.png,stimuli/Nonsocial2.png,,"(0.7, -0.5)",cs_plus_s,,,,,0,0,0,0,,,,,0,2,2,3,,,,,,,,,,,,,,,,,,,,,,,,,,,,,,,,,,,,,,,,,,,,,,,,,,,,,,,,,,,,,,656.6959902999952,658.1750787000055,656.1890780999966,658.1750787000055,658.1750787000055,658.1750787000055,0.006167599989566952,0.01317449999623932,5,shock,1,[0.1737118000019109],[0.18068489999859594],658.3625797999994,658.3625797999994,0.007098500005668029,0.007098500005668029,0.018580000003566965,0.05321310000726953,0.06015540000225883,0.10185530000308063,0.10876630000711884,1.0045513000077335,661.8555192000058,666.0220471000066,,,,,,,,,,,,,,,,,,,,,,,,,,,,,10,A,2023-12-08_08h21.21.377,gca_avoidance_task,2022.2.4,144.012120068487,
positions.xlsx,stimuli.xlsx,stimuli/Social1.png,stimuli/Social2.png,stimuli/Nonsocial1.png,stimuli/Nonsocial2.png,,"(0.7, 0.5)",cs_plus_s,,,,,0,0,0,0,,,,,0,3,3,2,,,,,,,,,,,,,,,,,,,,,,,,,,,,,,,,,,,,,,,,,,,,,,,,,,,,,,,,,,,,,,666.5289201999985,668.5080282999988,666.0220471000066,668.5080282999988,668.5080282999988,668.5080282999988,0.006177200004458427,0.012953400000697002,5,shock,1,[0.1735154999914812],[0.17351910000434145],668.6816183000046,668.6816183000046,0.0071887999947648495,0.0071887999947648495,0.011795300000812858,0.0534369999950286,0.06039839998993557,0.10204139999405015,0.10897519999707583,1.0047288999921875,672.1815506999992,676.5563319999928,,,,,,,,,,,,,,,,,,,,,,,,,,,,,10,A,2023-12-08_08h21.21.377,gca_avoidance_task,2022.2.4,144.012120068487,
positions.xlsx,stimuli.xlsx,stimuli/Social1.png,stimuli/Social2.png,stimuli/Nonsocial1.png,stimuli/Nonsocial2.png,,"(0.7, 0.5)",cs_minus_s,,,,,0,0,0,0,,,,,0,4,4,6,,,,,,,,,,,,,,,,,,,,,,,,,,,,,,,,,,,,,,,,,,,,,,,,,,,,,,,,,,,,,,677.0632261999999,678.4937549000024,676.5563319999928,678.4937549000024,678.4937549000024,678.4937549000024,0.006048900002497248,0.013480199995683506,10,reward,1,[0.549084700003732],[0.5490886000043247],679.0492945000005,679.0492945000005,0.00731469999300316,0.00731469999300316,0.017771700004232116,0.05237269999634009,0.05934219999471679,0.10100569999485742,0.1079874999995809,1.0037720999971498,682.5422552999953,686.4864815000037,,,,,,,,,,,,,,,,,,,,,,,,,,,,,10,A,2023-12-08_08h21.21.377,gca_avoidance_task,2022.2.4,144.012120068487,
positions.xlsx,stimuli.xlsx,stimuli/Social1.png,stimuli/Social2.png,stimuli/Nonsocial1.png,stimuli/Nonsocial2.png,,"(0.7, -0.5)",cs_minus_s,,,,,0,0,0,0,,,,,0,5,5,7,,,,,,,,,,,,,,,,,,,,,,,,,,,,,,,,,,,,,,,,,,,,,,,,,,,,,,,,,,,,,,686.9933735999948,688.4099877999979,686.4864815000037,688.4099877999979,688.4099877999979,688.4099877999979,0.006059100007405505,0.013361000004806556,15,reward,1,[0.2574821000016527],[0.2574858000007225],688.673856399997,688.673856399997,0.0075450000003911555,0.0075450000003911555,0.018141900000046007,0.05286339999292977,0.059818399997311644,0.10147749999305233,0.10844929999439046,1.0041616999951657,692.166810900002,696.4653033000068,,,,,,,,,,,,,,,,,,,,,,,,,,,,,10,A,2023-12-08_08h21.21.377,gca_avoidance_task,2022.2.4,144.012120068487,
positions.xlsx,stimuli.xlsx,stimuli/Social1.png,stimuli/Social2.png,stimuli/Nonsocial1.png,stimuli/Nonsocial2.png,,"(-0.7, -0.5)",cs_plus_ns,,,,,0,0,0,0,,,,,0,6,6,9,,,,,,,,,,,,,,,,,,,,,,,,,,,,,,,,,,,,,,,,,,,,,,,,,,,,,,,,,,,,,,696.972137100005,698.9512642000045,696.4653033000068,698.9512642000045,698.9512642000045,698.9512642000045,0.00733609999588225,0.013697600006707944,15,shock,1,[0.2158270999934757],[0.2158307999925455],699.1734641999938,699.1734641999938,0.008083299995632842,0.008083299995632842,0.01823030000377912,0.052870900006382726,0.05982729999232106,0.10148670000489801,0.10844290000386536,1.0042077999969479,702.6664612000022,706.6037167000031,,,,,,,,,,,,,,,,,,,,,,,,,,,,,10,A,2023-12-08_08h21.21.377,gca_avoidance_task,2022.2.4,144.012120068487,
positions.xlsx,stimuli.xlsx,stimuli/Social1.png,stimuli/Social2.png,stimuli/Nonsocial1.png,stimuli/Nonsocial2.png,,"(-0.7, 0.5)",cs_plus_s,,,,,0,0,0,0,,,,,0,7,7,0,,,,,,,,,,,,,,,,,,,,,,,,,,,,,,,,,,,,,,,,,,,,,,,,,,,,,,,,,,,,,,707.1106203999952,708.263346599997,706.6037167000031,708.263346599997,708.263346599997,708.263346599997,0.006017199993948452,0.013086199993267655,15,shock,1,[0.17430509999394417],[0.17430879999301396],708.4439330000023,708.4439330000023,0.007734900005743839,0.007734900005743839,0.018168300011893734,0.05287010000029113,0.05976700001338031,0.10139860000344925,0.10837200000241864,1.0041802000050666,711.9368353000027,716.0616796999966,,,,,,,,,,,,,,,,,,,,,,,,,,,,,10,A,2023-12-08_08h21.21.377,gca_avoidance_task,2022.2.4,144.012120068487,
positions.xlsx,stimuli.xlsx,stimuli/Social1.png,stimuli/Social2.png,stimuli/Nonsocial1.png,stimuli/Nonsocial2.png,,"(0.7, -0.5)",cs_minus_ns,,,,,0,0,0,0,,,,,0,8,8,15,,,,,,,,,,,,,,,,,,,,,,,,,,,,,,,,,,,,,,,,,,,,,,,,,,,,,,,,,,,,,,716.5686014999956,718.3740829000017,716.0616796999966,718.3740829000017,718.3740829000017,718.3740829000017,0.006994099996518344,0.013513700003386475,20,reward,1,[0.25041990001045633],[0.2504233000072418],718.6379493999993,718.6379493999993,0.007098499991116114,0.007098499991116114,0.0252665000007255,0.05298150000453461,0.05998540000291541,0.10157869999238756,0.10853699999279343,1.004322199994931,722.1239165000006,726.0682099999976,,,,,,,,,,,,,,,,,,,,,,,,,,,,,10,A,2023-12-08_08h21.21.377,gca_avoidance_task,2022.2.4,144.012120068487,
positions.xlsx,stimuli.xlsx,stimuli/Social1.png,stimuli/Social2.png,stimuli/Nonsocial1.png,stimuli/Nonsocial2.png,,"(0.7, 0.5)",cs_plus_ns,,,,,0,0,0,0,,,,,0,9,9,10,,,,,,,,,,,,,,,,,,,,,,,,,,,,,,,,,,,,,,,,,,,,,,,,,,,,,,,,,,,,,,726.5750968000066,727.6306326000049,726.0682099999976,727.6306326000049,727.6306326000049,727.6306326000049,0.00609910000639502,0.01323209999827668,20,none,0,,,732.6443245999981,732.6443245999981,0.014983000000938773,0.014983000000938773,0.02690979999897536,0.054661500005749986,0.06163360000937246,0.10326160000113305,0.11024069999984931,1.0129668000008678,736.130393200001,740.4565852999949,,,,,,,,,,,,,,,,,,,,,,,,,,,,,10,A,2023-12-08_08h21.21.377,gca_avoidance_task,2022.2.4,144.012120068487,
positions.xlsx,stimuli.xlsx,stimuli/Social1.png,stimuli/Social2.png,stimuli/Nonsocial1.png,stimuli/Nonsocial2.png,,"(-0.7, 0.5)",cs_minus_ns,,,,,0,0,0,0,,,,,0,10,10,12,,,,,,,,,,,,,,,,,,,,,,,,,,,,,,,,,,,,,,,,,,,,,,,,,,,,,,,,,,,,,,740.9634184000024,742.7966962999926,740.4565852999949,742.7966962999926,742.7966962999926,742.7966962999926,0.007236600009491667,0.013472300008288585,25,reward,1,[0.7090082000067923],[0.7090120000066236],743.5120366000046,743.5120366000046,0.00864519999595359,0.00864519999595359,0.018597100002807565,0.05316349999338854,0.06010449999303091,0.10179479999351315,0.1087783999973908,1.0045710999984294,747.0049143999931,750.976978000006,,,,,,,,,,,,,,,,,,,,,,,,,,,,,10,A,2023-12-08_08h21.21.377,gca_avoidance_task,2022.2.4,144.012120068487,
positions.xlsx,stimuli.xlsx,stimuli/Social1.png,stimuli/Social2.png,stimuli/Nonsocial1.png,stimuli/Nonsocial2.png,,"(-0.7, -0.5)",cs_minus_s,,,,,0,0,0,0,,,,,0,11,11,5,,,,,,,,,,,,,,,,,,,,,,,,,,,,,,,,,,,,,,,,,,,,,,,,,,,,,,,,,,,,,,751.4838542999933,753.4142891999945,750.976978000006,753.4142891999945,753.4142891999945,753.4142891999945,0.006581099994946271,0.013360700002522208,30,reward,1,[0.5421497000061208],[0.5421533000044292],753.9629390000046,753.9629390000046,0.006753499998012558,0.006753499998012558,0.018666400006623007,0.05330110000795685,0.06030620000092313,0.1019386999978451,0.10890340000332799,1.0046478000003844,757.4558565000043,761.4418158000044,,,,,,,,,,,,,,,,,,,,,,,,,,,,,10,A,2023-12-08_08h21.21.377,gca_avoidance_task,2022.2.4,144.012120068487,
positions.xlsx,stimuli.xlsx,stimuli/Social1.png,stimuli/Social2.png,stimuli/Nonsocial1.png,stimuli/Nonsocial2.png,,"(-0.7, -0.5)",cs_plus_s,,,,,0,0,0,0,,,,,0,12,12,1,,,,,,,,,,,,,,,,,,,,,,,,,,,,,,,,,,,,,,,,,,,,,,,,,,,,,,,,,,,,,,761.9486895000009,763.9138968000043,761.4418158000044,763.9138968000043,763.9138968000043,763.9138968000043,0.0061298999935388565,0.013097899995045736,30,shock,1,[0.2013775999948848],[0.20139430000563152],764.1222586999938,764.1222586999938,0.007490499992854893,0.007490499992854893,0.018628499994520098,0.053300100000342354,0.06025219999719411,0.10193309999885969,0.1088776999968104,1.0046181999932742,767.6151768999989,771.3442121999979,,,,,,,,,,,,,,,,,,,,,,,,,,,,,10,A,2023-12-08_08h21.21.377,gca_avoidance_task,2022.2.4,144.012120068487,
positions.xlsx,stimuli.xlsx,stimuli/Social1.png,stimuli/Social2.png,stimuli/Nonsocial1.png,stimuli/Nonsocial2.png,,"(-0.7, -0.5)",cs_minus_ns,,,,,0,0,0,0,,,,,0,13,13,13,,,,,,,,,,,,,,,,,,,,,,,,,,,,,,,,,,,,,,,,,,,,,,,,,,,,,,,,,,,,,,771.8511536000005,773.3787910999963,771.3442121999979,773.3787910999963,773.3787910999963,773.3787910999963,0.006367400012095459,0.01335010000912007,35,reward,1,[0.688072100005229],[0.6880760000058217],774.0801869999996,774.0801869999996,0.00961490000190679,0.00961490000190679,0.02501979999942705,0.05275000000256114,0.05971000000135973,0.10129439999582246,0.10831900000630412,1.0041321000026073,777.5661630999966,781.8715463999979,,,,,,,,,,,,,,,,,,,,,,,,,,,,,10,A,2023-12-08_08h21.21.377,gca_avoidance_task,2022.2.4,144.012120068487,
positions.xlsx,stimuli.xlsx,stimuli/Social1.png,stimuli/Social2.png,stimuli/Nonsocial1.png,stimuli/Nonsocial2.png,,"(0.7, -0.5)",cs_plus_ns,,,,,0,0,0,0,,,,,0,14,14,11,,,,,,,,,,,,,,,,,,,,,,,,,,,,,,,,,,,,,,,,,,,,,,,,,,,,,,,,,,,,,,782.3784339999984,783.6144963999977,781.8715463999979,783.6144963999977,783.6144963999977,783.6144963999977,0.007311199995456263,0.013427799989585765,35,shock,1,[0.18166469999414403],[0.18166849999397527],783.8020175999991,783.8020175999991,0.008152999987942167,0.008152999987942167,0.018049299993435852,0.05265230000077281,0.059619899999233894,0.10127709999505896,0.10823689999233466,1.0040328999893973,787.2949127000029,791.3781209000008,,,,,,,,,,,,,,,,,,,,,,,,,,,,,10,A,2023-12-08_08h21.21.377,gca_avoidance_task,2022.2.4,144.012120068487,
positions.xlsx,stimuli.xlsx,stimuli/Social1.png,stimuli/Social2.png,stimuli/Nonsocial1.png,stimuli/Nonsocial2.png,,"(0.7, 0.5)",cs_minus_ns,,,,,0,0,0,0,,,,,0,15,15,14,,,,,,,,,,,,,,,,,,,,,,,,,,,,,,,,,,,,,,,,,,,,,,,,,,,,,,,,,,,,,,791.8850011000031,793.794656099999,791.3781209000008,793.794656099999,793.794656099999,793.794656099999,0.007388199999695644,0.012957600003574044,40,reward,1,[0.6040510000020731],[0.60405449999962],794.4057721999998,794.4057721999998,0.008068099996307865,0.008068099996307865,0.018699599997489713,0.053428100000019185,0.06036769998900127,0.10197160000097938,0.10896329999377485,1.004719999997178,797.8987427999964,801.9401862999948,,,,,,,,,,,,,,,,,,,,,,,,,,,,,10,A,2023-12-08_08h21.21.377,gca_avoidance_task,2022.2.4,144.012120068487,
positions.xlsx,stimuli.xlsx,stimuli/Social1.png,stimuli/Social2.png,stimuli/Nonsocial1.png,stimuli/Nonsocial2.png,,"(0.7, 0.5)",cs_plus_ns,,,,,0,0,0,0,,,,,1,0,16,10,,,,,,,,,,,,,,,,,,,,,,,,,,,,,,,,,,,,,,,,,,,,,,,,,,,,,,,,,,,,,,802.447067400004,803.4608999000047,801.9401862999948,803.4608999000047,803.4608999000047,803.4608999000047,0.0068318999983603135,0.012703200001851656,40,none,0,,,808.4746412999957,808.4746412999957,0.013606000007712282,0.013606000007712282,0.026485199996386655,0.054209900001296774,0.06120159999409225,0.10277080000378191,0.10973569999623578,1.0125029000046197,811.9606727999926,816.2104497999971,,,,,,,,,,,,,,,,,,,,,,,,,,,,,10,A,2023-12-08_08h21.21.377,gca_avoidance_task,2022.2.4,144.012120068487,
positions.xlsx,stimuli.xlsx,stimuli/Social1.png,stimuli/Social2.png,stimuli/Nonsocial1.png,stimuli/Nonsocial2.png,,"(-0.7, -0.5)",cs_plus_s,,,,,0,0,0,0,,,,,1,1,17,1,,,,,,,,,,,,,,,,,,,,,,,,,,,,,,,,,,,,,,,,,,,,,,,,,,,,,,,,,,,,,,816.7173630000034,818.5506158000062,816.2104497999971,818.5506158000062,818.5506158000062,818.5506158000062,0.007914200003142469,0.01326120000157971,40,none,0,,,823.557341199994,823.557341199994,0.014278000002377667,0.014278000002377667,0.020010899999761023,0.054654899999150075,0.061578600012580864,0.10329060000367463,0.11026120001042727,1.0130159000109416,827.0503498000035,830.6751547000022,,,,,,,,,,,,,,,,,,,,,,,,,,,,,10,A,2023-12-08_08h21.21.377,gca_avoidance_task,2022.2.4,144.012120068487,
positions.xlsx,stimuli.xlsx,stimuli/Social1.png,stimuli/Social2.png,stimuli/Nonsocial1.png,stimuli/Nonsocial2.png,,"(0.7, -0.5)",cs_minus_ns,,,,,0,0,0,0,,,,,1,2,18,15,,,,,,,,,,,,,,,,,,,,,,,,,,,,,,,,,,,,,,,,,,,,,,,,,,,,,,,,,,,,,,831.1820332000061,832.7583902000042,830.6751547000022,832.7583902000042,832.7583902000042,832.7583902000042,0.006231000006664544,0.01328270000522025,45,reward,1,[0.5557417000090936],[0.5557454000081634],833.3208327000029,833.3208327000029,0.007849900008295663,0.007849900008295663,0.01841420000710059,0.0531362000037916,0.060069400002248585,0.10174040000129025,0.10870450000220444,1.0045244000066305,836.8138371999958,840.8900514999987,,,,,,,,,,,,,,,,,,,,,,,,,,,,,10,A,2023-12-08_08h21.21.377,gca_avoidance_task,2022.2.4,144.012120068487,
positions.xlsx,stimuli.xlsx,stimuli/Social1.png,stimuli/Social2.png,stimuli/Nonsocial1.png,stimuli/Nonsocial2.png,,"(-0.7, -0.5)",cs_minus_ns,,,,,0,0,0,0,,,,,1,3,19,13,,,,,,,,,,,,,,,,,,,,,,,,,,,,,,,,,,,,,,,,,,,,,,,,,,,,,,,,,,,,,,841.3969146000018,843.1815573000058,840.8900514999987,843.1815573000058,843.1815573000058,843.1815573000058,0.0067623999930219725,0.013137200003257021,50,reward,1,[0.7918170999910217],[0.7918209999916144],843.9801780999987,843.9801780999987,0.007516500001656823,0.007516500001656823,0.018245500003104098,0.052920799993444234,0.059846300006029196,0.10150239999347832,0.10846069999388419,1.0042068000038853,847.4731369999936,851.1326597000007,,,,,,,,,,,,,,,,,,,,,,,,,,,,,10,A,2023-12-08_08h21.21.377,gca_avoidance_task,2022.2.4,144.012120068487,
positions.xlsx,stimuli.xlsx,stimuli/Social1.png,stimuli/Social2.png,stimuli/Nonsocial1.png,stimuli/Nonsocial2.png,,"(-0.7, 0.5)",cs_minus_ns,,,,,0,0,0,0,,,,,1,4,20,12,,,,,,,,,,,,,,,,,,,,,,,,,,,,,,,,,,,,,,,,,,,,,,,,,,,,,,,,,,,,,,851.6395458000043,852.7645131000027,851.1326597000007,852.7645131000027,852.7645131000027,852.7645131000027,0.0064184000075329095,0.013234800004283898,55,reward,1,[0.5146780000068247],[0.5146817000058945],853.2853386000061,853.2853386000061,0.007735600011073984,0.007735600011073984,0.01824730000225827,0.05290450000029523,0.0598625999991782,0.10151700000278652,0.10848229999828618,1.004314500009059,856.7782470999955,861.0628391000064,,,,,,,,,,,,,,,,,,,,,,,,,,,,,10,A,2023-12-08_08h21.21.377,gca_avoidance_task,2022.2.4,144.012120068487,
positions.xlsx,stimuli.xlsx,stimuli/Social1.png,stimuli/Social2.png,stimuli/Nonsocial1.png,stimuli/Nonsocial2.png,,"(0.7, 0.5)",cs_plus_s,,,,,0,0,0,0,,,,,1,5,21,2,,,,,,,,,,,,,,,,,,,,,,,,,,,,,,,,,,,,,,,,,,,,,,,,,,,,,,,,,,,,,,861.5697037999926,863.0904867999925,861.0628391000064,863.0904867999925,863.0904867999925,863.0904867999925,0.006485399993835017,0.013181599992094561,55,none,0,,,868.0972661999986,868.0972661999986,0.013324999992619269,0.013324999992619269,0.020012299995869398,0.054655699990689754,0.06160099999397062,0.10322180000366643,0.11018799999146722,1.0129138000047533,871.590200199993,875.4580698999926,,,,,,,,,,,,,,,,,,,,,,,,,,,,,10,A,2023-12-08_08h21.21.377,gca_avoidance_task,2022.2.4,144.012120068487,
positions.xlsx,stimuli.xlsx,stimuli/Social1.png,stimuli/Social2.png,stimuli/Nonsocial1.png,stimuli/Nonsocial2.png,,"(0.7, 0.5)",cs_minus_ns,,,,,0,0,0,0,,,,,1,6,22,14,,,,,,,,,,,,,,,,,,,,,,,,,,,,,,,,,,,,,,,,,,,,,,,,,,,,,,,,,,,,,,875.9649693999963,877.7357814999996,875.4580698999926,877.7357814999996,877.7357814999996,877.7357814999996,0.006943700005649589,0.013044699997408316,60,reward,1,[0.6528595999989193],[0.6528633999987505],878.3954494000063,878.3954494000063,0.0076360999955795705,0.0076360999955795705,0.018389399992884137,0.05301439999311697,0.059985899992170744,0.10162560000026133,0.1086353999999119,1.0044283000024734,881.8883827999962,886.0757608999993,,,,,,,,,,,,,,,,,,,,,,,,,,,,,10,A,2023-12-08_08h21.21.377,gca_avoidance_task,2022.2.4,144.012120068487,
positions.xlsx,stimuli.xlsx,stimuli/Social1.png,stimuli/Social2.png,stimuli/Nonsocial1.png,stimuli/Nonsocial2.png,,"(0.7, -0.5)",cs_plus_s,,,,,0,0,0,0,,,,,1,7,23,3,,,,,,,,,,,,,,,,,,,,,,,,,,,,,,,,,,,,,,,,,,,,,,,,,,,,,,,,,,,,,,886.5825971000013,888.4922657999996,886.0757608999993,888.4922657999996,888.4922657999996,888.4922657999996,0.005569500004639849,0.013434200009214692,60,shock,1,[0.17427850000967737],[0.17429550000815652],888.672796400002,888.672796400002,0.007110099992132746,0.007110099992132746,0.01813699999183882,0.05281879998801742,0.05979419998766389,0.101435999997193,0.1083842999942135,1.0041679999994813,892.1657783999981,896.1586567000049,,,,,,,,,,,,,,,,,,,,,,,,,,,,,10,A,2023-12-08_08h21.21.377,gca_avoidance_task,2022.2.4,144.012120068487,
positions.xlsx,stimuli.xlsx,stimuli/Social1.png,stimuli/Social2.png,stimuli/Nonsocial1.png,stimuli/Nonsocial2.png,,"(0.7, -0.5)",cs_plus_ns,,,,,0,0,0,0,,,,,1,8,24,11,,,,,,,,,,,,,,,,,,,,,,,,,,,,,,,,,,,,,,,,,,,,,,,,,,,,,,,,,,,,,,896.6655572000018,898.5752574999933,896.1586567000049,898.5752574999933,898.5752574999933,898.5752574999933,0.007115200001862831,0.012965000001713634,60,none,0,,,903.5819349999947,903.5819349999947,0.013553199998568743,0.013553199998568743,0.019748599996091798,0.05434339999919757,0.061267500001122244,0.10296659999585245,0.1098504999972647,1.0126575000031153,907.0748991,911.4566313999967,,,,,,,,,,,,,,,,,,,,,,,,,,,,,10,A,2023-12-08_08h21.21.377,gca_avoidance_task,2022.2.4,144.012120068487,
positions.xlsx,stimuli.xlsx,stimuli/Social1.png,stimuli/Social2.png,stimuli/Nonsocial1.png,stimuli/Nonsocial2.png,,"(-0.7, 0.5)",cs_plus_ns,,,,,0,0,0,0,,,,,1,9,25,8,,,,,,,,,,,,,,,,,,,,,,,,,,,,,,,,,,,,,,,,,,,,,,,,,,,,,,,,,,,,,,911.9635202999925,913.442655699997,911.4566313999967,913.442655699997,913.442655699997,913.442655699997,0.007574100003694184,0.013145999997504987,60,none,0,,,918.4493924999988,918.4493924999988,0.013952699999208562,0.013952699999208562,0.019891100004315376,0.054650599995511584,0.06160260000615381,0.10321149999799673,0.11014869999780785,1.0128446000016993,921.9423661000037,925.7893979999935,,,,,,,,,,,,,,,,,,,,,,,,,,,,,10,A,2023-12-08_08h21.21.377,gca_avoidance_task,2022.2.4,144.012120068487,
positions.xlsx,stimuli.xlsx,stimuli/Social1.png,stimuli/Social2.png,stimuli/Nonsocial1.png,stimuli/Nonsocial2.png,,"(-0.7, 0.5)",cs_plus_s,,,,,0,0,0,0,,,,,1,10,26,0,,,,,,,,,,,,,,,,,,,,,,,,,,,,,,,,,,,,,,,,,,,,,,,,,,,,,,,,,,,,,,926.2963119000051,927.8864860000031,925.7893979999935,927.8864860000031,927.8864860000031,927.8864860000031,0.006700900004943833,0.01304250000976026,60,none,0,,,932.8932675999968,932.8932675999968,0.013837599995895289,0.013837599995895289,0.019861299995682202,0.05446949999895878,0.061457800009520724,0.10317010000289883,0.11010570000507869,1.0128220000042347,936.3862406999979,940.4138401999953,,,,,,,,,,,,,,,,,,,,,,,,,,,,,10,A,2023-12-08_08h21.21.377,gca_avoidance_task,2022.2.4,144.012120068487,
positions.xlsx,stimuli.xlsx,stimuli/Social1.png,stimuli/Social2.png,stimuli/Nonsocial1.png,stimuli/Nonsocial2.png,,"(-0.7, -0.5)",cs_minus_s,,,,,0,0,0,0,,,,,1,11,27,5,,,,,,,,,,,,,,,,,,,,,,,,,,,,,,,,,,,,,,,,,,,,,,,,,,,,,,,,,,,,,,940.920704300006,942.5456701999938,940.4138401999953,942.5456701999938,942.5456701999938,942.5456701999938,0.006692199996905401,0.01337970000167843,65,reward,1,[0.6323705999966478],[0.632374399996479],943.1845728000044,943.1845728000044,0.007016600007773377,0.007016600007773377,0.01858139999967534,0.053176400004304014,0.060173100006068125,0.10181789999478497,0.1087662000063574,1.004533100000117,946.6774909999949,950.5453912999947,,,,,,,,,,,,,,,,,,,,,,,,,,,,,10,A,2023-12-08_08h21.21.377,gca_avoidance_task,2022.2.4,144.012120068487,
positions.xlsx,stimuli.xlsx,stimuli/Social1.png,stimuli/Social2.png,stimuli/Nonsocial1.png,stimuli/Nonsocial2.png,,"(-0.7, -0.5)",cs_plus_ns,,,,,0,0,0,0,,,,,1,12,28,9,,,,,,,,,,,,,,,,,,,,,,,,,,,,,,,,,,,,,,,,,,,,,,,,,,,,,,,,,,,,,,951.0522615999944,952.5244016999932,950.5453912999947,952.5244016999932,952.5244016999932,952.5244016999932,0.00703020000946708,0.013198500004364178,65,shock,1,[0.1878473000106169],[0.18785100000968669],952.7188434999989,952.7188434999989,0.007586300009279512,0.007586300009279512,0.01836400000320282,0.05305450000741985,0.060016300005372614,0.10168279999925289,0.10868550000304822,1.0043869000073755,956.2117663999961,960.2186082999979,,,,,,,,,,,,,,,,,,,,,,,,,,,,,10,A,2023-12-08_08h21.21.377,gca_avoidance_task,2022.2.4,144.012120068487,
positions.xlsx,stimuli.xlsx,stimuli/Social1.png,stimuli/Social2.png,stimuli/Nonsocial1.png,stimuli/Nonsocial2.png,,"(0.7, -0.5)",cs_minus_s,,,,,0,0,0,0,,,,,1,13,29,7,,,,,,,,,,,,,,,,,,,,,,,,,,,,,,,,,,,,,,,,,,,,,,,,,,,,,,,,,,,,,,960.7254650999967,962.6976314000058,960.2186082999979,962.6976314000058,962.6976314000058,962.6976314000058,0.0064211999997496605,0.013124399993102998,70,reward,1,[0.21552119999250863],[0.21552509999310132],962.9198223999992,962.9198223999992,0.006928899994818494,0.006928899994818494,0.018358899993472733,0.05301509999844711,0.05998530000215396,0.10162109999509994,0.10858200000075158,1.004394499992486,966.4127781999996,970.544592899998,,,,,,,,,,,,,,,,,,,,,,,,,,,,,10,A,2023-12-08_08h21.21.377,gca_avoidance_task,2022.2.4,144.012120068487,
positions.xlsx,stimuli.xlsx,stimuli/Social1.png,stimuli/Social2.png,stimuli/Nonsocial1.png,stimuli/Nonsocial2.png,,"(0.7, 0.5)",cs_minus_s,,,,,0,0,0,0,,,,,1,14,30,6,,,,,,,,,,,,,,,,,,,,,,,,,,,,,,,,,,,,,,,,,,,,,,,,,,,,,,,,,,,,,,971.0514642000053,972.5236408000055,970.544592899998,972.5236408000055,972.5236408000055,972.5236408000055,0.006590500008314848,0.013148400001227856,75,reward,1,[0.6112418999982765],[0.6112455999973463],973.1416490999982,973.1416490999982,0.007494699995731935,0.007494699995731935,0.018468800000846386,0.05310109999845736,0.060067099999287166,0.1017137000017101,0.10873069999797735,1.0044742000027327,976.6346061999939,980.5164169000054,,,,,,,,,,,,,,,,,,,,,,,,,,,,,10,A,2023-12-08_08h21.21.377,gca_avoidance_task,2022.2.4,144.012120068487,
positions.xlsx,stimuli.xlsx,stimuli/Social1.png,stimuli/Social2.png,stimuli/Nonsocial1.png,stimuli/Nonsocial2.png,,"(-0.7, 0.5)",cs_minus_s,,,,,0,0,0,0,,,,,1,15,31,4,,,,,,,,,,,,,,,,,,,,,,,,,,,,,,,,,,,,,,,,,,,,,,,,,,,,,,,,,,,,,,981.0232861999975,982.1829440000001,980.5164169000054,982.1829440000001,982.1829440000001,982.1829440000001,0.006229399994481355,0.012964999987161718,80,reward,1,[0.5068111000000499],[0.5068147999991197],982.6968056000042,982.6968056000042,0.007247300003655255,0.007247300003655255,0.01895430000149645,0.05363980001129676,0.060574700008146465,0.10223910000058822,0.1092410999990534,1.005017700008466,986.1897562999948,990.1895660000009,,,,,,,,,,,,,,,,,,,,,,,,,,,,,10,A,2023-12-08_08h21.21.377,gca_avoidance_task,2022.2.4,144.012120068487,
positions.xlsx,stimuli.xlsx,stimuli/Social1.png,stimuli/Social2.png,stimuli/Nonsocial1.png,stimuli/Nonsocial2.png,,"(0.7, -0.5)",cs_minus_s,,,,,0,0,0,0,,,,,,,,,0,0,0,7,,,,,,,,,,,,,,,,,,,,,,,,,,,,,,,,,,,,,,,,,,,,,,,,,,,,,,,,,,1010.8902383999957,1012.8345277000044,1010.3901511000004,1012.8345277000044,1012.8345277000044,1012.8345277000044,0.0059655999939423054,0.013264299996080808,85,reward,1,[0.5348630999942543],[0.5348666000063531],1013.3761353000009,1013.3761353000009,0.00733320000290405,0.00733320000290405,0.018040599999949336,0.052726699999766424,0.05974530000821687,0.10132940000039525,0.1083643000019947,1.0041256999975303,1016.869053699993,1020.5912022999983,990.1895660000009,990.1895660000009,990.1895660000009,990.1895660000009,space,18.54786669999885,,,,,,,,,,,,,,,,,,,,,,,10,A,2023-12-08_08h21.21.377,gca_avoidance_task,2022.2.4,144.012120068487,
positions.xlsx,stimuli.xlsx,stimuli/Social1.png,stimuli/Social2.png,stimuli/Nonsocial1.png,stimuli/Nonsocial2.png,,"(-0.7, 0.5)",cs_minus_ns,,,,,0,0,0,0,,,,,,,,,0,1,1,12,,,,,,,,,,,,,,,,,,,,,,,,,,,,,,,,,,,,,,,,,,,,,,,,,,,,,,,,,,1021.0980664999952,1022.2368929999939,1020.5912022999983,1022.2368929999939,1022.2368929999939,1022.2368929999939,0.0071823000034783036,0.012899499997729436,90,reward,1,[0.4931168000039179],[0.4999446000001626],1022.7438204999926,1022.7438204999926,0.008235799992689863,0.008235799992689863,0.018649299992830493,0.053339099991717376,0.060268000001087785,0.10193269999581389,0.10888859999249689,1.0046998000034364,1026.2367953999928,1030.646305400005,,,,,,,,,,,,,,,,,,,,,,,,,,,,,10,A,2023-12-08_08h21.21.377,gca_avoidance_task,2022.2.4,144.012120068487,
positions.xlsx,stimuli.xlsx,stimuli/Social1.png,stimuli/Social2.png,stimuli/Nonsocial1.png,stimuli/Nonsocial2.png,,"(-0.7, 0.5)",cs_plus_s,,,,,0,0,0,0,,,,,,,,,0,2,2,0,,,,,,,,,,,,,,,,,,,,,,,,,,,,,,,,,,,,,,,,,,,,,,,,,,,,,,,,,,1031.1531929000048,1033.0420431999955,1030.646305400005,1033.0420431999955,1033.0420431999955,1033.0420431999955,0.005993699989630841,0.013008699999772944,90,shock,1,[1.930566800001543],[1.9305838000000222],1034.979448900005,1034.979448900005,0.007082500000251457,0.007082500000251457,0.018292100008693524,0.05293829999573063,0.05988840000645723,0.10158640000736341,0.10850860000937246,1.004294200000004,1038.472446700005,1042.7152761000034,,,,,,,,,,,,,,,,,,,,,,,,,,,,,10,A,2023-12-08_08h21.21.377,gca_avoidance_task,2022.2.4,144.012120068487,
positions.xlsx,stimuli.xlsx,stimuli/Social1.png,stimuli/Social2.png,stimuli/Nonsocial1.png,stimuli/Nonsocial2.png,,"(0.7, 0.5)",cs_minus_ns,,,,,0,0,0,0,,,,,,,,,0,3,3,14,,,,,,,,,,,,,,,,,,,,,,,,,,,,,,,,,,,,,,,,,,,,,,,,,,,,,,,,,,1043.2221641999931,1044.576288199998,1042.7152761000034,1044.576288199998,1044.576288199998,1044.576288199998,0.006383299987646751,0.01347669999813661,95,reward,1,[0.5975975999899674],[0.5976009999867529],1045.1804155999998,1045.1804155999998,0.0072139999974751845,0.0072139999974751845,0.018483899999409914,0.053094599992618896,0.06010380000225268,0.10176219999266323,0.10870019999856595,1.0045150999940233,1048.6733354000025,1052.9162970000034,,,,,,,,,,,,,,,,,,,,,,,,,,,,,10,A,2023-12-08_08h21.21.377,gca_avoidance_task,2022.2.4,144.012120068487,
positions.xlsx,stimuli.xlsx,stimuli/Social1.png,stimuli/Social2.png,stimuli/Nonsocial1.png,stimuli/Nonsocial2.png,,"(-0.7, 0.5)",cs_minus_s,,,,,0,0,0,0,,,,,,,,,0,4,4,4,,,,,,,,,,,,,,,,,,,,,,,,,,,,,,,,,,,,,,,,,,,,,,,,,,,,,,,,,,1053.4231485000055,1055.1522624999925,1052.9162970000034,1055.1522624999925,1055.1522624999925,1055.1522624999925,0.005671699997037649,0.013175700005376711,100,reward,1,[0.5001532000023872],[0.5001566999999341],1055.6592056999943,1055.6592056999943,0.007106700009899214,0.007106700009899214,0.01887140001053922,0.053481499999179505,0.060432400001445785,0.10209850000683218,0.10908580000977963,1.0048380000080215,1059.1520984999952,1063.3047533999925,,,,,,,,,,,,,,,,,,,,,,,,,,,,,10,A,2023-12-08_08h21.21.377,gca_avoidance_task,2022.2.4,144.012120068487,
positions.xlsx,stimuli.xlsx,stimuli/Social1.png,stimuli/Social2.png,stimuli/Nonsocial1.png,stimuli/Nonsocial2.png,,"(-0.7, -0.5)",cs_minus_ns,,,,,0,0,0,0,,,,,,,,,0,5,5,13,,,,,,,,,,,,,,,,,,,,,,,,,,,,,,,,,,,,,,,,,,,,,,,,,,,,,,,,,,1063.8116211000015,1065.242139199996,1063.3047533999925,1065.242139199996,1065.242139199996,1065.242139199996,0.0069044999981997535,0.013527499992051162,105,reward,1,[0.5978873999993084],[0.5978911999991396],1065.8462736999936,1065.8462736999936,0.007517899997765198,0.007517899997765198,0.018445599998813123,0.053185000011580996,0.060103600000729784,0.10171170000103302,0.10864250001031905,1.0044727000058629,1069.3392023000051,1073.7556921000069,,,,,,,,,,,,,,,,,,,,,,,,,,,,,10,A,2023-12-08_08h21.21.377,gca_avoidance_task,2022.2.4,144.012120068487,
positions.xlsx,stimuli.xlsx,stimuli/Social1.png,stimuli/Social2.png,stimuli/Nonsocial1.png,stimuli/Nonsocial2.png,,"(0.7, 0.5)",cs_plus_ns,,,,,0,0,0,0,,,,,,,,,0,6,6,10,,,,,,,,,,,,,,,,,,,,,,,,,,,,,,,,,,,,,,,,,,,,,,,,,,,,,,,,,,1074.2625696000032,1076.2625152999972,1073.7556921000069,1076.2625152999972,1076.2625152999972,1076.2625152999972,0.007986399999936111,0.013057199990726076,105,none,0,,,1081.2762173999945,1081.2762173999945,0.015118499999516644,0.015118499999516644,0.026798799997777678,0.0545123999909265,0.06146929999522399,0.1031201999867335,0.11008099999162368,1.0128652999992482,1084.7622532999958,1089.1787267000036,,,,,,,,,,,,,,,,,,,,,,,,,,,,,10,A,2023-12-08_08h21.21.377,gca_avoidance_task,2022.2.4,144.012120068487,
positions.xlsx,stimuli.xlsx,stimuli/Social1.png,stimuli/Social2.png,stimuli/Nonsocial1.png,stimuli/Nonsocial2.png,,"(-0.7, -0.5)",cs_plus_ns,,,,,0,0,0,0,,,,,,,,,0,7,7,9,,,,,,,,,,,,,,,,,,,,,,,,,,,,,,,,,,,,,,,,,,,,,,,,,,,,,,,,,,1089.685596299998,1090.9564282999927,1089.1787267000036,1090.9564282999927,1090.9564282999927,1090.9564282999927,0.0076754999900003895,0.013422000003629364,105,none,0,,,1095.9631227000064,1095.9631227000064,0.015210300000035204,0.015210300000035204,0.02016709999588784,0.05480489999172278,0.06183069999678992,0.10341909999260679,0.11037539999233559,1.0131076999969082,1099.4560513000033,1103.143444500005,,,,,,,,,,,,,,,,,,,,,,,,,,,,,10,A,2023-12-08_08h21.21.377,gca_avoidance_task,2022.2.4,144.012120068487,
positions.xlsx,stimuli.xlsx,stimuli/Social1.png,stimuli/Social2.png,stimuli/Nonsocial1.png,stimuli/Nonsocial2.png,,"(0.7, 0.5)",cs_plus_s,,,,,0,0,0,0,,,,,,,,,0,8,8,2,,,,,,,,,,,,,,,,,,,,,,,,,,,,,,,,,,,,,,,,,,,,,,,,,,,,,,,,,,1103.6503098999965,1104.8100118000002,1103.143444500005,1104.8100118000002,1104.8100118000002,1104.8100118000002,0.006440999990445562,0.013187499993364327,105,none,0,,,1109.816736199995,1109.816736199995,0.013686199992662296,0.013686199992662296,0.019876899998052977,0.05458659998839721,0.06151799998770002,0.10318679999909364,0.1102344999962952,1.0128485999885015,1113.3096908000007,1117.3998304999986,,,,,,,,,,,,,,,,,,,,,,,,,,,,,10,A,2023-12-08_08h21.21.377,gca_avoidance_task,2022.2.4,144.012120068487,
positions.xlsx,stimuli.xlsx,stimuli/Social1.png,stimuli/Social2.png,stimuli/Nonsocial1.png,stimuli/Nonsocial2.png,,"(0.7, 0.5)",cs_minus_s,,,,,0,0,0,0,,,,,,,,,0,9,9,6,,,,,,,,,,,,,,,,,,,,,,,,,,,,,,,,,,,,,,,,,,,,,,,,,,,,,,,,,,1117.906727900001,1119.1080515000067,1117.3998304999986,1119.1080515000067,1119.1080515000067,1119.1080515000067,0.0056724000023677945,0.013176899999962188,110,reward,1,[0.2502145000034943],[0.25021810000180267],1119.3649747000018,1119.3649747000018,0.00735030000214465,0.00735030000214465,0.01832650000869762,0.05303799999819603,0.05998580000596121,0.10159900000144262,0.10858159999770578,1.0043727000011131,1122.8579582999955,1127.2396522000054,,,,,,,,,,,,,,,,,,,,,,,,,,,,,10,A,2023-12-08_08h21.21.377,gca_avoidance_task,2022.2.4,144.012120068487,
positions.xlsx,stimuli.xlsx,stimuli/Social1.png,stimuli/Social2.png,stimuli/Nonsocial1.png,stimuli/Nonsocial2.png,,"(0.7, -0.5)",cs_plus_ns,,,,,0,0,0,0,,,,,,,,,0,10,10,11,,,,,,,,,,,,,,,,,,,,,,,,,,,,,,,,,,,,,,,,,,,,,,,,,,,,,,,,,,1127.7465633999964,1128.8437612999987,1127.2396522000054,1128.8437612999987,1128.8437612999987,1128.8437612999987,0.007141100009903312,0.013433400003123097,110,shock,1,[0.47271919999911916],[0.47272289999818895],1129.3229198000045,1129.3229198000045,0.008294900006148964,0.008294900006148964,0.018309599996428005,0.05296329999691807,0.05994930000451859,0.10155799999483861,0.10852520000480581,1.0042914999939967,1132.8158799999946,1137.2253679999994,,,,,,,,,,,,,,,,,,,,,,,,,,,,,10,A,2023-12-08_08h21.21.377,gca_avoidance_task,2022.2.4,144.012120068487,
positions.xlsx,stimuli.xlsx,stimuli/Social1.png,stimuli/Social2.png,stimuli/Nonsocial1.png,stimuli/Nonsocial2.png,,"(-0.7, -0.5)",cs_plus_s,,,,,0,0,0,0,,,,,,,,,0,11,11,1,,,,,,,,,,,,,,,,,,,,,,,,,,,,,,,,,,,,,,,,,,,,,,,,,,,,,,,,,,1137.732290999993,1139.378056600006,1137.2253679999994,1139.378056600006,1139.378056600006,1139.378056600006,0.005747999995946884,0.012934700003825128,110,shock,1,[4.548496599993086],[4.548500199991395],1143.9334668999945,1143.9334668999945,0.008365699992282316,0.008365699992282316,0.018272899993462488,0.05286290000367444,0.05984229999012314,0.10151900000346359,0.10844139999244362,1.0042250999977114,1147.4263563999993,1151.8428734000045,,,,,,,,,,,,,,,,,,,,,,,,,,,,,10,A,2023-12-08_08h21.21.377,gca_avoidance_task,2022.2.4,144.012120068487,
positions.xlsx,stimuli.xlsx,stimuli/Social1.png,stimuli/Social2.png,stimuli/Nonsocial1.png,stimuli/Nonsocial2.png,,"(0.7, -0.5)",cs_plus_s,,,,,0,0,0,0,,,,,,,,,0,12,12,3,,,,,,,,,,,,,,,,,,,,,,,,,,,,,,,,,,,,,,,,,,,,,,,,,,,,,,,,,,1152.3497701000015,1153.828882300004,1151.8428734000045,1153.828882300004,1153.828882300004,1153.828882300004,0.006914199999300763,0.01334639999549836,110,none,0,,,1158.8356820000045,1158.8356820000045,0.013613899995107204,0.013613899995107204,0.020087999990209937,0.05474259999755304,0.061715699994238093,0.10335969999141525,0.11033799999859184,1.013033600000199,1162.328534500004,1166.265924499996,,,,,,,,,,,,,,,,,,,,,,,,,,,,,10,A,2023-12-08_08h21.21.377,gca_avoidance_task,2022.2.4,144.012120068487,
positions.xlsx,stimuli.xlsx,stimuli/Social1.png,stimuli/Social2.png,stimuli/Nonsocial1.png,stimuli/Nonsocial2.png,,"(-0.7, -0.5)",cs_minus_s,,,,,0,0,0,0,,,,,,,,,0,13,13,5,,,,,,,,,,,,,,,,,,,,,,,,,,,,,,,,,,,,,,,,,,,,,,,,,,,,,,,,,,1166.772817399993,1168.390802199996,1166.265924499996,1168.390802199996,1168.390802199996,1168.390802199996,0.006188599989400245,0.013336299991351552,115,reward,1,[0.5628128999960609],[0.5628163999936078],1168.9602500000037,1168.9602500000037,0.0074391999951330945,0.0074391999951330945,0.01873919999343343,0.053401500001200475,0.06035899999551475,0.1019631999952253,0.10888800000248011,1.004727899999125,1172.453139899997,1176.8349368000054,,,,,,,,,,,,,,,,,,,,,,,,,,,,,10,A,2023-12-08_08h21.21.377,gca_avoidance_task,2022.2.4,144.012120068487,
positions.xlsx,stimuli.xlsx,stimuli/Social1.png,stimuli/Social2.png,stimuli/Nonsocial1.png,stimuli/Nonsocial2.png,,"(0.7, -0.5)",cs_minus_ns,,,,,0,0,0,0,,,,,,,,,0,14,14,15,,,,,,,,,,,,,,,,,,,,,,,,,,,,,,,,,,,,,,,,,,,,,,,,,,,,,,,,,,1177.3418028000015,1178.8348035999952,1176.8349368000054,1178.8348035999952,1178.8348035999952,1178.8348035999952,0.0068315999960759655,0.013003200001548976,120,reward,1,[0.49999169999500737],[0.49999559999560006],1179.3417526999983,1179.3417526999983,0.007714999999734573,0.007714999999734573,0.01866359999985434,0.05332250001083594,0.06027929999982007,0.10191060000215657,0.10887440000078641,1.0046385000023292,1182.8346936000016,1187.1956702000025,,,,,,,,,,,,,,,,,,,,,,,,,,,,,10,A,2023-12-08_08h21.21.377,gca_avoidance_task,2022.2.4,144.012120068487,
positions.xlsx,stimuli.xlsx,stimuli/Social1.png,stimuli/Social2.png,stimuli/Nonsocial1.png,stimuli/Nonsocial2.png,,"(-0.7, 0.5)",cs_plus_ns,,,,,0,0,0,0,,,,,,,,,0,15,15,8,,,,,,,,,,,,,,,,,,,,,,,,,,,,,,,,,,,,,,,,,,,,,,,,,,,,,,,,,,1187.7025010999932,1189.3205643999972,1187.1956702000025,1189.3205643999972,1189.3205643999972,1189.3205643999972,0.00711099999898579,0.01301429999875836,120,none,0,,,1194.3272494999983,1194.3272494999983,0.013417699999990873,0.013417699999990873,0.019710499997017905,0.05437319999327883,0.06132959999376908,0.1030109999992419,0.11001419999229256,1.012709899994661,1197.8201814000058,1202.1325373,,,,,,,,,,,,,,,,,,,,,,,,,,,,,10,A,2023-12-08_08h21.21.377,gca_avoidance_task,2022.2.4,144.012120068487,
positions.xlsx,stimuli.xlsx,stimuli/Social1.png,stimuli/Social2.png,stimuli/Nonsocial1.png,stimuli/Nonsocial2.png,,"(0.7, -0.5)",cs_minus_ns,,,,,0,0,0,0,,,,,,,,,1,0,16,15,,,,,,,,,,,,,,,,,,,,,,,,,,,,,,,,,,,,,,,,,,,,,,,,,,,,,,,,,,1202.6394213000021,1204.2365882000013,1202.1325373,1204.2365882000013,1204.2365882000013,1204.2365882000013,0.006651400006376207,0.013326800006325357,125,reward,1,[0.5767859000043245],[0.5767897000041557],1204.8199227000005,1204.8199227000005,0.007642199998372234,0.007642199998372234,0.018561099990620278,0.05317769999965094,0.06013719999464229,0.10177869998733513,0.10874849998799618,1.0045474999933504,1208.3128754000063,1212.4863046999963,,,,,,,,,,,,,,,,,,,,,,,,,,,,,10,A,2023-12-08_08h21.21.377,gca_avoidance_task,2022.2.4,144.012120068487,
positions.xlsx,stimuli.xlsx,stimuli/Social1.png,stimuli/Social2.png,stimuli/Nonsocial1.png,stimuli/Nonsocial2.png,,"(0.7, 0.5)",cs_plus_ns,,,,,0,0,0,0,,,,,,,,,1,1,17,10,,,,,,,,,,,,,,,,,,,,,,,,,,,,,,,,,,,,,,,,,,,,,,,,,,,,,,,,,,1212.993184299994,1214.5695010000054,1212.4863046999963,1214.5695010000054,1214.5695010000054,1214.5695010000054,0.0070657000032952055,0.013222399997175671,125,none,0,,,1219.5762617,1219.5762617,0.014295799992396496,0.014295799992396496,0.02003639999020379,0.05471149999357294,0.0617054000031203,0.10327019999385811,0.1102303999941796,1.0129516000015428,1223.0691924999992,1226.8746309999988,,,,,,,,,,,,,,,,,,,,,,,,,,,,,10,A,2023-12-08_08h21.21.377,gca_avoidance_task,2022.2.4,144.012120068487,
positions.xlsx,stimuli.xlsx,stimuli/Social1.png,stimuli/Social2.png,stimuli/Nonsocial1.png,stimuli/Nonsocial2.png,,"(-0.7, 0.5)",cs_minus_s,,,,,0,0,0,0,,,,,,,,,1,2,18,4,,,,,,,,,,,,,,,,,,,,,,,,,,,,,,,,,,,,,,,,,,,,,,,,,,,,,,,,,,1227.3814846000023,1228.4370240999997,1226.8746309999988,1228.4370240999997,1228.4370240999997,1228.4370240999997,0.006014400001731701,0.013182900001993403,130,reward,1,[0.6252177999995183],[0.6252213999978267],1229.0689617000025,1229.0689617000025,0.007412300008581951,0.007412300008581951,0.018403900001430884,0.053058599994983524,0.060043599994969554,0.10166800000297371,0.10862199999974109,1.0044138000084786,1232.561844900003,1236.5756181000033,,,,,,,,,,,,,,,,,,,,,,,,,,,,,10,A,2023-12-08_08h21.21.377,gca_avoidance_task,2022.2.4,144.012120068487,
positions.xlsx,stimuli.xlsx,stimuli/Social1.png,stimuli/Social2.png,stimuli/Nonsocial1.png,stimuli/Nonsocial2.png,,"(0.7, -0.5)",cs_minus_s,,,,,0,0,0,0,,,,,,,,,1,3,19,7,,,,,,,,,,,,,,,,,,,,,,,,,,,,,,,,,,,,,,,,,,,,,,,,,,,,,,,,,,1237.0825118999928,1238.756038499996,1236.5756181000033,1238.756038499996,1238.756038499996,1238.756038499996,0.0061678999918513,0.0129595999896992,135,reward,0,,,1239.3879608999996,1239.3879608999996,0.007327700004680082,0.007327700004680082,0.018198200006736442,0.05297520000021905,0.0598628000007011,0.10150210000574589,0.10843770000792574,1.004223900003126,1242.8809185999999,1246.6655240999971,,,,,,,,,,,,,,,,,,,,,,,,,,,,,10,A,2023-12-08_08h21.21.377,gca_avoidance_task,2022.2.4,144.012120068487,
positions.xlsx,stimuli.xlsx,stimuli/Social1.png,stimuli/Social2.png,stimuli/Nonsocial1.png,stimuli/Nonsocial2.png,,"(-0.7, 0.5)",cs_plus_s,,,,,0,0,0,0,,,,,,,,,1,4,20,0,,,,,,,,,,,,,,,,,,,,,,,,,,,,,,,,,,,,,,,,,,,,,,,,,,,,,,,,,,1247.1724225999933,1249.1375814000057,1246.6655240999971,1249.1375814000057,1249.1375814000057,1249.1375814000057,0.005903600002056919,0.013466100004734471,135,shock,1,[0.16017489999649115],[0.1601786999963224],1249.3042601000052,1249.3042601000052,0.007977400004165247,0.007977400004165247,0.0186876000079792,0.05329530000744853,0.06024980000802316,0.10193390000495128,0.10889090001001023,1.0046947000082582,1252.797203299997,1256.7761950999993,,,,,,,,,,,,,,,,,,,,,,,,,,,,,10,A,2023-12-08_08h21.21.377,gca_avoidance_task,2022.2.4,144.012120068487,
positions.xlsx,stimuli.xlsx,stimuli/Social1.png,stimuli/Social2.png,stimuli/Nonsocial1.png,stimuli/Nonsocial2.png,,"(0.7, 0.5)",cs_minus_ns,,,,,0,0,0,0,,,,,,,,,1,5,21,14,,,,,,,,,,,,,,,,,,,,,,,,,,,,,,,,,,,,,,,,,,,,,,,,,,,,,,,,,,1257.283090500001,1258.303886499998,1256.7761950999993,1258.303886499998,1258.303886499998,1258.303886499998,0.0073386000003665686,0.013194700004532933,140,reward,1,[0.7363374999986263],[0.7363410000107251],1259.0469083999924,1259.0469083999924,0.007497500002500601,0.007497500002500601,0.01850659999763593,0.05318740000075195,0.06017260000226088,0.10180570000375155,0.10874239999975543,1.00450290000299,1262.5398814999935,1266.4563488999993,,,,,,,,,,,,,,,,,,,,,,,,,,,,,10,A,2023-12-08_08h21.21.377,gca_avoidance_task,2022.2.4,144.012120068487,
positions.xlsx,stimuli.xlsx,stimuli/Social1.png,stimuli/Social2.png,stimuli/Nonsocial1.png,stimuli/Nonsocial2.png,,"(-0.7, 0.5)",cs_plus_ns,,,,,0,0,0,0,,,,,,,,,1,6,22,8,,,,,,,,,,,,,,,,,,,,,,,,,,,,,,,,,,,,,,,,,,,,,,,,,,,,,,,,,,1266.9632663999946,1268.234046700003,1266.4563488999993,1268.234046700003,1268.234046700003,1268.234046700003,0.0075899000075878575,0.012859299997217022,140,none,0,,,1273.2408161000058,1273.2408161000058,0.013849499999196269,0.013849499999196269,0.019676800002343953,0.05436409999674652,0.06123940000543371,0.10292140000092331,0.109851900007925,1.0126003000041237,1276.733777500005,1281.1433309999993,,,,,,,,,,,,,,,,,,,,,,,,,,,,,10,A,2023-12-08_08h21.21.377,gca_avoidance_task,2022.2.4,144.012120068487,
positions.xlsx,stimuli.xlsx,stimuli/Social1.png,stimuli/Social2.png,stimuli/Nonsocial1.png,stimuli/Nonsocial2.png,,"(0.7, 0.5)",cs_plus_s,,,,,0,0,0,0,,,,,,,,,1,7,23,2,,,,,,,,,,,,,,,,,,,,,,,,,,,,,,,,,,,,,,,,,,,,,,,,,,,,,,,,,,1281.6501698999928,1282.9765099999931,1281.1433309999993,1282.9765099999931,1282.9765099999931,1282.9765099999931,0.005834700001287274,0.013135900007910095,140,none,0,,,1287.9832629000011,1287.9832629000011,0.013068200001725927,0.013068200001725927,0.019963500002631918,0.054589100007433444,0.061577000000397675,0.10320890000730287,0.11019160000432748,1.012935100006871,1291.476179499994,1295.5871621999977,,,,,,,,,,,,,,,,,,,,,,,,,,,,,10,A,2023-12-08_08h21.21.377,gca_avoidance_task,2022.2.4,144.012120068487,
positions.xlsx,stimuli.xlsx,stimuli/Social1.png,stimuli/Social2.png,stimuli/Nonsocial1.png,stimuli/Nonsocial2.png,,"(0.7, 0.5)",cs_minus_s,,,,,0,0,0,0,,,,,,,,,1,8,24,6,,,,,,,,,,,,,,,,,,,,,,,,,,,,,,,,,,,,,,,,,,,,,,,,,,,,,,,,,,1296.0940480999998,1298.0453649999981,1295.5871621999977,1298.0453649999981,1298.0453649999981,1298.0453649999981,0.005881700009922497,0.013017200006288476,145,reward,1,[0.7436529000115115],[0.7436564000090584],1298.7953592999984,1298.7953592999984,0.007022999998298474,0.007022999998298474,0.018266999992192723,0.0528894000017317,0.059854799997992814,0.10152129999187309,0.10848049999913201,1.0042187999933958,1302.2882631999964,1306.1145355000044,,,,,,,,,,,,,,,,,,,,,,,,,,,,,10,A,2023-12-08_08h21.21.377,gca_avoidance_task,2022.2.4,144.012120068487,
positions.xlsx,stimuli.xlsx,stimuli/Social1.png,stimuli/Social2.png,stimuli/Nonsocial1.png,stimuli/Nonsocial2.png,,"(-0.7, -0.5)",cs_minus_ns,,,,,0,0,0,0,,,,,,,,,1,9,25,13,,,,,,,,,,,,,,,,,,,,,,,,,,,,,,,,,,,,,,,,,,,,,,,,,,,,,,,,,,1306.6214318999992,1307.9269403999933,1306.1145355000044,1307.9269403999933,1307.9269403999933,1307.9269403999933,0.006448700005421415,0.013158300003851764,150,reward,1,[0.74319110000215],[0.7431947000004584],1308.676911500006,1308.676911500006,0.007524500004365109,0.007524500004365109,0.01840760000050068,0.05303209999692626,0.05995680000341963,0.10165820000111125,0.10865650000050664,1.004376400000183,1312.1698630000028,1316.6626786999987,,,,,,,,,,,,,,,,,,,,,,,,,,,,,10,A,2023-12-08_08h21.21.377,gca_avoidance_task,2022.2.4,144.012120068487,
positions.xlsx,stimuli.xlsx,stimuli/Social1.png,stimuli/Social2.png,stimuli/Nonsocial1.png,stimuli/Nonsocial2.png,,"(0.7, -0.5)",cs_plus_s,,,,,0,0,0,0,,,,,,,,,1,10,26,3,,,,,,,,,,,,,,,,,,,,,,,,,,,,,,,,,,,,,,,,,,,,,,,,,,,,,,,,,,1317.169608600001,1319.141743100001,1316.6626786999987,1319.141743100001,1319.141743100001,1319.141743100001,0.0057164000027114525,0.013350499997613952,150,shock,1,[0.18084609998913947],[0.18084989998897072],1319.3292428999994,1319.3292428999994,0.007167699994170107,0.007167699994170107,0.018752399992081337,0.05344909999985248,0.06041999999433756,0.10206679999828339,0.10900919999403413,1.004853299993556,1322.8222240000032,1327.2109350999963,,,,,,,,,,,,,,,,,,,,,,,,,,,,,10,A,2023-12-08_08h21.21.377,gca_avoidance_task,2022.2.4,144.012120068487,
positions.xlsx,stimuli.xlsx,stimuli/Social1.png,stimuli/Social2.png,stimuli/Nonsocial1.png,stimuli/Nonsocial2.png,,"(0.7, -0.5)",cs_plus_ns,,,,,0,0,0,0,,,,,,,,,1,11,27,11,,,,,,,,,,,,,,,,,,,,,,,,,,,,,,,,,,,,,,,,,,,,,,,,,,,,,,,,,,1327.7178043000022,1329.7108011999953,1327.2109350999963,1329.7108011999953,1329.7108011999953,1329.7108011999953,0.0071601000090595335,0.013160700007574633,150,shock,1,[0.20159940001030918],[0.20160320001014043],1329.9191182000068,1329.9191182000068,0.00827559999015648,0.00827559999015648,0.018286999998963438,0.05295069998828694,0.05992400000104681,0.10157479999179486,0.10852529999101534,1.0043211999873165,1333.4120798999938,1337.196676499996,,,,,,,,,,,,,,,,,,,,,,,,,,,,,10,A,2023-12-08_08h21.21.377,gca_avoidance_task,2022.2.4,144.012120068487,
positions.xlsx,stimuli.xlsx,stimuli/Social1.png,stimuli/Social2.png,stimuli/Nonsocial1.png,stimuli/Nonsocial2.png,,"(-0.7, 0.5)",cs_minus_ns,,,,,0,0,0,0,,,,,,,,,1,12,28,12,,,,,,,,,,,,,,,,,,,,,,,,,,,,,,,,,,,,,,,,,,,,,,,,,,,,,,,,,,1337.703571399994,1339.3631850999955,1337.196676499996,1339.3631850999955,1339.3631850999955,1339.3631850999955,0.006964999993215315,0.013103199991746806,155,reward,1,[0.4445487999910256],[0.4515062999998918],1339.8214962000056,1339.8214962000056,0.007741099994746037,0.007741099994746037,0.018510299996705726,0.05320389999542385,0.060149299999466166,0.10179289999359753,0.10875759999908041,1.0045656000002054,1343.3144251000049,1347.7656451999937,,,,,,,,,,,,,,,,,,,,,,,,,,,,,10,A,2023-12-08_08h21.21.377,gca_avoidance_task,2022.2.4,144.012120068487,
positions.xlsx,stimuli.xlsx,stimuli/Social1.png,stimuli/Social2.png,stimuli/Nonsocial1.png,stimuli/Nonsocial2.png,,"(-0.7, -0.5)",cs_minus_s,,,,,0,0,0,0,,,,,,,,,1,13,29,5,,,,,,,,,,,,,,,,,,,,,,,,,,,,,,,,,,,,,,,,,,,,,,,,,,,,,,,,,,1348.2725567000016,1350.1545060999924,1347.7656451999937,1350.1545060999924,1350.1545060999924,1350.1545060999924,0.006501600000774488,0.01302560001204256,160,reward,1,[0.6668423000082839],[0.6668461000081152],1350.8280126000027,1350.8280126000027,0.007227599999168888,0.007227599999168888,0.01832970000396017,0.05302979999396484,0.05994300000020303,0.10154410000541247,0.10857850000320468,1.0043614000023808,1354.3209550000029,1358.1888673000067,,,,,,,,,,,,,,,,,,,,,,,,,,,,,10,A,2023-12-08_08h21.21.377,gca_avoidance_task,2022.2.4,144.012120068487,
positions.xlsx,stimuli.xlsx,stimuli/Social1.png,stimuli/Social2.png,stimuli/Nonsocial1.png,stimuli/Nonsocial2.png,,"(-0.7, -0.5)",cs_plus_ns,,,,,0,0,0,0,,,,,,,,,1,14,30,9,,,,,,,,,,,,,,,,,,,,,,,,,,,,,,,,,,,,,,,,,,,,,,,,,,,,,,,,,,1358.6957372000034,1359.7720896999963,1358.1888673000067,1359.7720896999963,1359.7720896999963,1359.7720896999963,0.006608799987589009,0.013456199987558648,160,none,0,,,1364.7857906999998,1364.7857906999998,0.015677799994591624,0.015677799994591624,0.027225699988775887,0.05492019999655895,0.06189430000085849,0.10352939998847432,0.11049649999768008,1.0131958999991184,1368.2718156000046,1372.0633258000016,,,,,,,,,,,,,,,,,,,,,,,,,,,,,10,A,2023-12-08_08h21.21.377,gca_avoidance_task,2022.2.4,144.012120068487,
positions.xlsx,stimuli.xlsx,stimuli/Social1.png,stimuli/Social2.png,stimuli/Nonsocial1.png,stimuli/Nonsocial2.png,,"(-0.7, -0.5)",cs_plus_s,,,,,0,0,0,0,,,,,,,,,1,15,31,1,,,,,,,,,,,,,,,,,,,,,,,,,,,,,,,,,,,,,,,,,,,,,,,,,,,,,,,,,,1372.5701986000058,1374.215968599994,1372.0633258000016,1374.215968599994,1374.215968599994,1374.215968599994,0.0073994999984279275,0.01315210000029765,160,none,0,,,1379.2227100000018,1379.2227100000018,0.014666599992779084,0.014666599992779084,0.01990959999966435,0.05459010000049602,0.06158029999642167,0.10324589999800082,0.11022129999764729,1.012873200001195,1382.7156963000016,1386.611392299994,,,,,,,,,,,,,,,,,,,,,,,,,,,,,10,A,2023-12-08_08h21.21.377,gca_avoidance_task,2022.2.4,144.012120068487,
positions.xlsx,stimuli.xlsx,stimuli/Social1.png,stimuli/Social2.png,stimuli/Nonsocial1.png,stimuli/Nonsocial2.png,,"(0.7, -0.5)",cs_minus_s,,,,,0,0,0,0,,,,,,,,,2,0,32,7,,,,,,,,,,,,,,,,,,,,,,,,,,,,,,,,,,,,,,,,,,,,,,,,,,,,,,,,,,1387.118263299999,1388.1945975999988,1386.611392299994,1388.1945975999988,1388.1945975999988,1388.1945975999988,0.006834899992099963,0.013111899999785237,165,reward,1,[0.6804981000022963],[0.680502000002889],1388.882091099993,1388.882091099993,0.007226499990792945,0.007226499990792945,0.01886319999175612,0.05347629998868797,0.06046919999062084,0.10213220000150613,0.10907839999708813,1.0048515999951633,1392.375024699999,1396.770721199995,,,,,,,,,,,,,,,,,,,,,,,,,,,,,10,A,2023-12-08_08h21.21.377,gca_avoidance_task,2022.2.4,144.012120068487,
positions.xlsx,stimuli.xlsx,stimuli/Social1.png,stimuli/Social2.png,stimuli/Nonsocial1.png,stimuli/Nonsocial2.png,,"(0.7, -0.5)",cs_plus_ns,,,,,0,0,0,0,,,,,,,,,2,1,33,11,,,,,,,,,,,,,,,,,,,,,,,,,,,,,,,,,,,,,,,,,,,,,,,,,,,,,,,,,,1397.2775803999975,1399.0552652000042,1396.770721199995,1399.0552652000042,1399.0552652000042,1399.0552652000042,0.007139400011510588,0.013263100001495332,165,none,0,,,1404.0620479999925,1404.0620479999925,0.014232300003641285,0.014232300003641285,0.020066500001121312,0.054686000003130175,0.06164720001106616,0.10337050000089221,0.11035400000400841,1.0130485000117915,1407.554967899996,1411.2909635999968,,,,,,,,,,,,,,,,,,,,,,,,,,,,,10,A,2023-12-08_08h21.21.377,gca_avoidance_task,2022.2.4,144.012120068487,
positions.xlsx,stimuli.xlsx,stimuli/Social1.png,stimuli/Social2.png,stimuli/Nonsocial1.png,stimuli/Nonsocial2.png,,"(0.7, -0.5)",cs_plus_s,,,,,0,0,0,0,,,,,,,,,2,2,34,3,,,,,,,,,,,,,,,,,,,,,,,,,,,,,,,,,,,,,,,,,,,,,,,,,,,,,,,,,,1411.7978316999943,1413.596363100005,1411.2909635999968,1413.596363100005,1413.596363100005,1413.596363100005,0.0061953999975230545,0.013129400002071634,165,none,0,,,1418.6031442999956,1418.6031442999956,0.013384500009124167,0.013384500009124167,0.01992259999678936,0.05455900001106784,0.061552400002256036,0.10324650000256952,0.11015560000669211,1.0128535999974702,1422.0960573000048,1426.2973122999974,,,,,,,,,,,,,,,,,,,,,,,,,,,,,10,A,2023-12-08_08h21.21.377,gca_avoidance_task,2022.2.4,144.012120068487,
positions.xlsx,stimuli.xlsx,stimuli/Social1.png,stimuli/Social2.png,stimuli/Nonsocial1.png,stimuli/Nonsocial2.png,,"(-0.7, -0.5)",cs_plus_ns,,,,,0,0,0,0,,,,,,,,,2,3,35,9,,,,,,,,,,,,,,,,,,,,,,,,,,,,,,,,,,,,,,,,,,,,,,,,,,,,,,,,,,1426.8041648999933,1428.436046799994,1426.2973122999974,1428.436046799994,1428.436046799994,1428.436046799994,0.006845600000815466,0.012740599995595403,165,none,0,,,1433.442784400002,1433.442784400002,0.013816999999107793,0.013816999999107793,0.019525700001395307,0.054284500001813285,0.06120879999070894,0.10282220000226516,0.10981290000199806,1.0124968999880366,1436.935725400006,1440.6578456999996,,,,,,,,,,,,,,,,,,,,,,,,,,,,,10,A,2023-12-08_08h21.21.377,gca_avoidance_task,2022.2.4,144.012120068487,
positions.xlsx,stimuli.xlsx,stimuli/Social1.png,stimuli/Social2.png,stimuli/Nonsocial1.png,stimuli/Nonsocial2.png,,"(0.7, 0.5)",cs_plus_ns,,,,,0,0,0,0,,,,,,,,,2,4,36,10,,,,,,,,,,,,,,,,,,,,,,,,,,,,,,,,,,,,,,,,,,,,,,,,,,,,,,,,,,1441.164741600005,1442.845220400006,1440.6578456999996,1442.845220400006,1442.845220400006,1442.845220400006,0.00681470001291018,0.013170300007914193,165,none,0,,,1447.8519629999937,1447.8519629999937,0.013890200003515929,0.013890200003515929,0.01990260000457056,0.054609099999652244,0.06158480000158306,0.10322010000527371,0.11015730000508483,1.0129188999999315,1451.3448752999975,1455.1850363999984,,,,,,,,,,,,,,,,,,,,,,,,,,,,,10,A,2023-12-08_08h21.21.377,gca_avoidance_task,2022.2.4,144.012120068487,
positions.xlsx,stimuli.xlsx,stimuli/Social1.png,stimuli/Social2.png,stimuli/Nonsocial1.png,stimuli/Nonsocial2.png,,"(0.7, 0.5)",cs_minus_s,,,,,0,0,0,0,,,,,,,,,2,5,37,6,,,,,,,,,,,,,,,,,,,,,,,,,,,,,,,,,,,,,,,,,,,,,,,,,,,,,,,,,,1455.6919214999944,1457.5390875000012,1455.1850363999984,1457.5390875000012,1457.5390875000012,1457.5390875000012,0.006871500008855946,0.013135900007910095,170,reward,1,[0.5210938000091119],[0.5210976000089431],1458.0668631000008,1458.0668631000008,0.007492100005038083,0.007492100005038083,0.018217000004369766,0.052856100010103546,0.059756700007710606,0.10139740000886377,0.10835680000309367,1.0042269000114175,1461.5598220999964,1465.7888055999938,,,,,,,,,,,,,,,,,,,,,,,,,,,,,10,A,2023-12-08_08h21.21.377,gca_avoidance_task,2022.2.4,144.012120068487,
positions.xlsx,stimuli.xlsx,stimuli/Social1.png,stimuli/Social2.png,stimuli/Nonsocial1.png,stimuli/Nonsocial2.png,,"(-0.7, 0.5)",cs_plus_s,,,,,0,0,0,0,,,,,,,,,2,6,38,0,,,,,,,,,,,,,,,,,,,,,,,,,,,,,,,,,,,,,,,,,,,,,,,,,,,,,,,,,,1466.2956772000034,1468.0525624000002,1465.7888055999938,1468.0525624000002,1468.0525624000002,1468.0525624000002,0.006139699995401315,0.013175200001569465,170,none,0,,,1473.0593162000005,1473.0593162000005,0.013375900001847185,0.013375900001847185,0.019896700003300793,0.054608200007351115,0.06154540000716224,0.10319090000120923,0.11017149999679532,1.0129365000029793,1476.5523014000064,1480.7048842999939,,,,,,,,,,,,,,,,,,,,,,,,,,,,,10,A,2023-12-08_08h21.21.377,gca_avoidance_task,2022.2.4,144.012120068487,
positions.xlsx,stimuli.xlsx,stimuli/Social1.png,stimuli/Social2.png,stimuli/Nonsocial1.png,stimuli/Nonsocial2.png,,"(-0.7, -0.5)",cs_minus_s,,,,,0,0,0,0,,,,,,,,,2,7,39,5,,,,,,,,,,,,,,,,,,,,,,,,,,,,,,,,,,,,,,,,,,,,,,,,,,,,,,,,,,1481.2117331000045,1482.5103372000012,1480.7048842999939,1482.5103372000012,1482.5103372000012,1482.5103372000012,0.005885999999009073,0.013362900004722178,175,reward,1,[0.6533509000000777],[0.6533548000006704],1483.1699995999952,1483.1699995999952,0.006324800007860176,0.006324800007860176,0.01855290000094101,0.05322119999618735,0.060182600005646236,0.10185099999944214,0.1088512999995146,1.0046241000090959,1486.6630008000066,1490.690617100001,,,,,,,,,,,,,,,,,,,,,,,,,,,,,10,A,2023-12-08_08h21.21.377,gca_avoidance_task,2022.2.4,144.012120068487,
positions.xlsx,stimuli.xlsx,stimuli/Social1.png,stimuli/Social2.png,stimuli/Nonsocial1.png,stimuli/Nonsocial2.png,,"(-0.7, -0.5)",cs_plus_s,,,,,0,0,0,0,,,,,,,,,2,8,40,1,,,,,,,,,,,,,,,,,,,,,,,,,,,,,,,,,,,,,,,,,,,,,,,,,,,,,,,,,,1491.1974721000006,1493.0862688000052,1490.690617100001,1493.0862688000052,1493.0862688000052,1493.0862688000052,0.005761599997640587,0.013405699995928444,175,none,0,,,1498.0930783999938,1498.0930783999938,0.014093200006755069,0.014093200006755069,0.020194600001559593,0.05483959999401122,0.06180029999813996,0.10346620000200346,0.11040730000240728,1.0131293000013102,1501.5860075999954,1505.6552437999926,,,,,,,,,,,,,,,,,,,,,,,,,,,,,10,A,2023-12-08_08h21.21.377,gca_avoidance_task,2022.2.4,144.012120068487,
positions.xlsx,stimuli.xlsx,stimuli/Social1.png,stimuli/Social2.png,stimuli/Nonsocial1.png,stimuli/Nonsocial2.png,,"(-0.7, 0.5)",cs_plus_ns,,,,,0,0,0,0,,,,,,,,,2,9,41,8,,,,,,,,,,,,,,,,,,,,,,,,,,,,,,,,,,,,,,,,,,,,,,,,,,,,,,,,,,1506.1621745000011,1507.3912984000053,1505.6552437999926,1507.3912984000053,1507.3912984000053,1507.3912984000053,0.006410399990272708,0.012957899991306476,175,none,0,,,1512.3980143999943,1512.3980143999943,0.013860699997167103,0.013860699997167103,0.01966819999506697,0.054403000001912005,0.06135940000240225,0.10299879999365658,0.10992740000074264,1.0126944999938132,1515.8910017000017,1519.4324878000043,,,,,,,,,,,,,,,,,,,,,,,,,,,,,10,A,2023-12-08_08h21.21.377,gca_avoidance_task,2022.2.4,144.012120068487,
positions.xlsx,stimuli.xlsx,stimuli/Social1.png,stimuli/Social2.png,stimuli/Nonsocial1.png,stimuli/Nonsocial2.png,,"(-0.7, -0.5)",cs_minus_ns,,,,,0,0,0,0,,,,,,,,,2,10,42,13,,,,,,,,,,,,,,,,,,,,,,,,,,,,,,,,,,,,,,,,,,,,,,,,,,,,,,,,,,1519.9394168,1521.9254204000026,1519.4324878000043,1521.9254204000026,1521.9254204000026,1521.9254204000026,0.006432199996197596,0.012965099987923168,180,reward,1,[0.9513086999941152],[0.951312199991662],1522.8837235999963,1522.8837235999963,0.007215099991299212,0.007215099991299212,0.01838799999677576,0.053089699998963624,0.060016599993105046,0.10167779999028426,0.10859739998704754,1.004403099999763,1526.3767047000001,1530.202907800005,,,,,,,,,,,,,,,,,,,,,,,,,,,,,10,A,2023-12-08_08h21.21.377,gca_avoidance_task,2022.2.4,144.012120068487,
positions.xlsx,stimuli.xlsx,stimuli/Social1.png,stimuli/Social2.png,stimuli/Nonsocial1.png,stimuli/Nonsocial2.png,,"(0.7, -0.5)",cs_minus_ns,,,,,0,0,0,0,,,,,,,,,2,11,43,15,,,,,,,,,,,,,,,,,,,,,,,,,,,,,,,,,,,,,,,,,,,,,,,,,,,,,,,,,,1530.709834399997,1531.8486587999942,1530.202907800005,1531.8486587999942,1531.8486587999942,1531.8486587999942,0.006419199999072589,0.013017099990975112,185,reward,1,[0.736121699999785],[0.7361256000003777],1532.5916945000063,1532.5916945000063,0.008073000004515052,0.008073000004515052,0.018265100006829016,0.052924500007065944,0.059838900007889606,0.10152710000693332,0.10845919999701437,1.004284100010409,1536.0846289000037,1539.6539538999932,,,,,,,,,,,,,,,,,,,,,,,,,,,,,10,A,2023-12-08_08h21.21.377,gca_avoidance_task,2022.2.4,144.012120068487,
positions.xlsx,stimuli.xlsx,stimuli/Social1.png,stimuli/Social2.png,stimuli/Nonsocial1.png,stimuli/Nonsocial2.png,,"(0.7, 0.5)",cs_plus_s,,,,,0,0,0,0,,,,,,,,,2,12,44,2,,,,,,,,,,,,,,,,,,,,,,,,,,,,,,,,,,,,,,,,,,,,,,,,,,,,,,,,,,1540.1608104000043,1541.2580351999932,1539.6539538999932,1541.2580351999932,1541.2580351999932,1541.2580351999932,0.005969400008325465,0.013242000000900589,185,shock,1,[1.6390324000094552],[1.6390358000062406],1542.9038161999924,1542.9038161999924,0.0072481000097468495,0.0072481000097468495,0.01855400000931695,0.05317460000514984,0.060122200011392124,0.10183220000180881,0.1087619000027189,1.0045953000080772,1546.3966929000017,1550.6118494999973,,,,,,,,,,,,,,,,,,,,,,,,,,,,,10,A,2023-12-08_08h21.21.377,gca_avoidance_task,2022.2.4,144.012120068487,
positions.xlsx,stimuli.xlsx,stimuli/Social1.png,stimuli/Social2.png,stimuli/Nonsocial1.png,stimuli/Nonsocial2.png,,"(-0.7, 0.5)",cs_minus_ns,,,,,0,0,0,0,,,,,,,,,2,13,45,12,,,,,,,,,,,,,,,,,,,,,,,,,,,,,,,,,,,,,,,,,,,,,,,,,,,,,,,,,,1551.1187205000024,1552.4936610000004,1550.6118494999973,1552.4936610000004,1552.4936610000004,1552.4936610000004,0.006125300002167933,0.01305589999537915,190,reward,1,[0.6598859999940032],[0.6598897999938345],1553.1603216999938,1553.1603216999938,0.008042600005865097,0.008042600005865097,0.018469300004653633,0.05314770000404678,0.06009280000580475,0.10174920001009014,0.10872450000897516,1.0045087000034982,1556.653273200005,1560.7086770000024,,,,,,,,,,,,,,,,,,,,,,,,,,,,,10,A,2023-12-08_08h21.21.377,gca_avoidance_task,2022.2.4,144.012120068487,
positions.xlsx,stimuli.xlsx,stimuli/Social1.png,stimuli/Social2.png,stimuli/Nonsocial1.png,stimuli/Nonsocial2.png,,"(0.7, 0.5)",cs_minus_ns,,,,,0,0,0,0,,,,,,,,,2,14,46,14,,,,,,,,,,,,,,,,,,,,,,,,,,,,,,,,,,,,,,,,,,,,,,,,,,,,,,,,,,1561.2155475000036,1562.4238290999929,1560.7086770000024,1562.4238290999929,1562.4238290999929,1562.4238290999929,0.0063768999971216545,0.013257300000987016,195,reward,1,[0.5141793000075268],[0.5141830000065966],1562.9446562999947,1562.9446562999947,0.007278600009158254,0.007278600009158254,0.01833510000142269,0.0530404000019189,0.059962900006212294,0.10162909999780823,0.10854050000489224,1.0043562000064412,1566.4376332999964,1570.4583017999976,,,,,,,,,,,,,,,,,,,,,,,,,,,,,10,A,2023-12-08_08h21.21.377,gca_avoidance_task,2022.2.4,144.012120068487,
positions.xlsx,stimuli.xlsx,stimuli/Social1.png,stimuli/Social2.png,stimuli/Nonsocial1.png,stimuli/Nonsocial2.png,,"(-0.7, 0.5)",cs_minus_s,,,,,0,0,0,0,,,,,,,,,2,15,47,4,,,,,,,,,,,,,,,,,,,,,,,,,,,,,,,,,,,,,,,,,,,,,,,,,,,,,,,,,,1570.965160599997,1572.5345458999946,1570.4583017999976,1572.5345458999946,1572.5345458999946,1572.5345458999946,0.00564190000295639,0.013216799998190254,200,reward,1,[0.6250816000101622],[0.6250850000069477],1573.1664740999986,1573.1664740999986,0.00674129999242723,0.00674129999242723,0.018605399993248284,0.053247199990437366,0.0601775999966776,0.10193059999437537,0.10885909998614807,1.0047211999917636,1576.659458299997,1580.8120013000007,,,,,,,,,,,,,,,,,,,,,,,,,,,,,10,A,2023-12-08_08h21.21.377,gca_avoidance_task,2022.2.4,144.012120068487,
positions.xlsx,stimuli.xlsx,stimuli/Social1.png,stimuli/Social2.png,stimuli/Nonsocial1.png,stimuli/Nonsocial2.png,,"(-0.7, -0.5)",cs_minus_s,,,,,0,0,0,0,,,,,,,,,3,0,48,5,,,,,,,,,,,,,,,,,,,,,,,,,,,,,,,,,,,,,,,,,,,,,,,,,,,,,,,,,,1581.3189023000014,1582.4299825000053,1580.8120013000007,1582.4299825000053,1582.4299825000053,1582.4299825000053,0.006013499994878657,0.013162000002921559,205,reward,1,[0.46534120000433177],[0.46534470000187866],1582.9022059999988,1582.9022059999988,0.00684499999624677,0.00684499999624677,0.01851389999501407,0.0531872999999905,0.06014230000437237,0.10181049999664538,0.10875410000153352,1.0045673999993596,1586.3951522999996,1590.8186122000043,,,,,,,,,,,,,,,,,,,,,,,,,,,,,10,A,2023-12-08_08h21.21.377,gca_avoidance_task,2022.2.4,144.012120068487,
positions.xlsx,stimuli.xlsx,stimuli/Social1.png,stimuli/Social2.png,stimuli/Nonsocial1.png,stimuli/Nonsocial2.png,,"(0.7, -0.5)",cs_minus_ns,,,,,0,0,0,0,,,,,,,,,3,1,49,15,,,,,,,,,,,,,,,,,,,,,,,,,,,,,,,,,,,,,,,,,,,,,,,,,,,,,,,,,,1591.3254683999985,1593.2420584999927,1590.8186122000043,1593.2420584999927,1593.2420584999927,1593.2420584999927,0.006431200003135018,0.013073199996142648,210,reward,1,[0.5833216000028187],[0.5833252000011271],1593.8323283000063,1593.8323283000063,0.0071992000011960045,0.0071992000011960045,0.018712700009928085,0.05338180001126602,0.060347200007527135,0.10200720001012087,0.10899580000841524,1.004744700010633,1597.3253071999934,1601.1445971000066,,,,,,,,,,,,,,,,,,,,,,,,,,,,,10,A,2023-12-08_08h21.21.377,gca_avoidance_task,2022.2.4,144.012120068487,
positions.xlsx,stimuli.xlsx,stimuli/Social1.png,stimuli/Social2.png,stimuli/Nonsocial1.png,stimuli/Nonsocial2.png,,"(0.7, 0.5)",cs_minus_s,,,,,0,0,0,0,,,,,,,,,3,2,50,6,,,,,,,,,,,,,,,,,,,,,,,,,,,,,,,,,,,,,,,,,,,,,,,,,,,,,,,,,,1601.651444899995,1602.7416921999975,1601.1445971000066,1602.7416921999975,1602.7416921999975,1602.7416921999975,0.005906500009587035,0.013225400005467236,215,reward,1,[0.5349149000103353],[0.534918800010928],1603.2833492999926,1603.2833492999926,0.006669299997156486,0.006669299997156486,0.01856529999349732,0.05325729999458417,0.060120399997686036,0.1017847999901278,0.10873159999027848,1.004519199996139,1606.776301699996,1611.0678154000052,,,,,,,,,,,,,,,,,,,,,,,,,,,,,10,A,2023-12-08_08h21.21.377,gca_avoidance_task,2022.2.4,144.012120068487,
positions.xlsx,stimuli.xlsx,stimuli/Social1.png,stimuli/Social2.png,stimuli/Nonsocial1.png,stimuli/Nonsocial2.png,,"(-0.7, 0.5)",cs_minus_ns,,,,,0,0,0,0,,,,,,,,,3,3,51,12,,,,,,,,,,,,,,,,,,,,,,,,,,,,,,,,,,,,,,,,,,,,,,,,,,,,,,,,,,1611.5746860999934,1613.2204193999933,1611.0678154000052,1613.2204193999933,1613.2204193999933,1613.2204193999933,0.007201800006441772,0.013177999993786216,220,reward,1,[0.5215005999925779],[0.5215043000061996],1613.7482230000023,1613.7482230000023,0.0072991000051843,0.0072991000051843,0.018158200007746927,0.05278850000468083,0.059747100007371046,0.10137060000852216,0.10835429999860935,1.0041035000031115,1617.241166599997,1621.046562699994,,,,,,,,,,,,,,,,,,,,,,,,,,,,,10,A,2023-12-08_08h21.21.377,gca_avoidance_task,2022.2.4,144.012120068487,
positions.xlsx,stimuli.xlsx,stimuli/Social1.png,stimuli/Social2.png,stimuli/Nonsocial1.png,stimuli/Nonsocial2.png,,"(0.7, -0.5)",cs_plus_ns,,,,,0,0,0,0,,,,,,,,,3,4,52,11,,,,,,,,,,,,,,,,,,,,,,,,,,,,,,,,,,,,,,,,,,,,,,,,,,,,,,,,,,1621.5534494000021,1622.6367364000034,1621.046562699994,1622.6367364000034,1622.6367364000034,1622.6367364000034,0.006812699997681193,0.013099400006467476,220,none,0,,,1627.650449599998,1627.650449599998,0.01401090000581462,0.01401090000581462,0.026832899995497428,0.054576900001848117,0.061547899997094646,0.10316460000467487,0.11012490000575781,1.0128428000025451,1631.1364634000056,1634.802993899997,,,,,,,,,,,,,,,,,,,,,,,,,,,,,10,A,2023-12-08_08h21.21.377,gca_avoidance_task,2022.2.4,144.012120068487,
positions.xlsx,stimuli.xlsx,stimuli/Social1.png,stimuli/Social2.png,stimuli/Nonsocial1.png,stimuli/Nonsocial2.png,,"(-0.7, 0.5)",cs_minus_s,,,,,0,0,0,0,,,,,,,,,3,5,53,4,,,,,,,,,,,,,,,,,,,,,,,,,,,,,,,,,,,,,,,,,,,,,,,,,,,,,,,,,,1635.3098523999943,1636.9417124000029,1634.802993899997,1636.9417124000029,1636.9417124000029,1636.9417124000029,0.006031400000210851,0.013093200002913363,225,reward,1,[0.2710772000136785],[0.27108100001350977],1637.2194976000028,1637.2194976000028,0.007613800000399351,0.007613800000399351,0.018376300009549595,0.05306390000623651,0.05996090000553522,0.10165490000508726,0.10860020000836812,1.0043955000001006,1640.7125030000025,1644.3303842000023,,,,,,,,,,,,,,,,,,,,,,,,,,,,,10,A,2023-12-08_08h21.21.377,gca_avoidance_task,2022.2.4,144.012120068487,
positions.xlsx,stimuli.xlsx,stimuli/Social1.png,stimuli/Social2.png,stimuli/Nonsocial1.png,stimuli/Nonsocial2.png,,"(-0.7, 0.5)",cs_plus_s,,,,,0,0,0,0,,,,,,,,,3,6,54,0,,,,,,,,,,,,,,,,,,,,,,,,,,,,,,,,,,,,,,,,,,,,,,,,,,,,,,,,,,1644.8372428000002,1646.3719095999986,1644.3303842000023,1646.3719095999986,1646.3719095999986,1646.3719095999986,0.006296599996858276,0.013146800003596582,225,shock,1,[0.18069949999335222],[0.18070329999318346],1646.5594281999947,1646.5594281999947,0.007731000005151145,0.007731000005151145,0.01852740001049824,0.05321580001327675,0.060177700011990964,0.10176920000230893,0.10874020001210738,1.0045613000111189,1650.0523612999968,1654.5522036000038,,,,,,,,,,,,,,,,,,,,,,,,,,,,,10,A,2023-12-08_08h21.21.377,gca_avoidance_task,2022.2.4,144.012120068487,
positions.xlsx,stimuli.xlsx,stimuli/Social1.png,stimuli/Social2.png,stimuli/Nonsocial1.png,stimuli/Nonsocial2.png,,"(-0.7, -0.5)",cs_plus_s,,,,,0,0,0,0,,,,,,,,,3,7,55,1,,,,,,,,,,,,,,,,,,,,,,,,,,,,,,,,,,,,,,,,,,,,,,,,,,,,,,,,,,1655.0590873000037,1656.246524000002,1654.5522036000038,1656.246524000002,1656.246524000002,1656.246524000002,0.005643399999826215,0.013100500000291504,225,none,0,,,1661.2532650999929,1661.2532650999929,0.013474599996698089,0.013474599996698089,0.01987199998984579,0.054568099993048236,0.06154850000166334,0.10319569999410305,0.11015090000000782,1.0128258999902755,1664.7462500999973,1668.412769100003,,,,,,,,,,,,,,,,,,,,,,,,,,,,,10,A,2023-12-08_08h21.21.377,gca_avoidance_task,2022.2.4,144.012120068487,
positions.xlsx,stimuli.xlsx,stimuli/Social1.png,stimuli/Social2.png,stimuli/Nonsocial1.png,stimuli/Nonsocial2.png,,"(-0.7, 0.5)",cs_plus_ns,,,,,0,0,0,0,,,,,,,,,3,8,56,8,,,,,,,,,,,,,,,,,,,,,,,,,,,,,,,,,,,,,,,,,,,,,,,,,,,,,,,,,,1668.9196403999958,1670.1488202000037,1668.412769100003,1670.1488202000037,1670.1488202000037,1670.1488202000037,0.0069444999971892685,0.013279299993882887,225,shock,1,[1.5767351999966195],[1.5767388999956893],1671.7320487999968,1671.7320487999968,0.007736200001090765,0.007736200001090765,0.01857200000085868,0.05325599999923725,0.06020199999329634,0.10187650000443682,0.10878039999806788,1.0045616999996128,1675.2250213999941,1679.2109544999985,,,,,,,,,,,,,,,,,,,,,,,,,,,,,10,A,2023-12-08_08h21.21.377,gca_avoidance_task,2022.2.4,144.012120068487,
positions.xlsx,stimuli.xlsx,stimuli/Social1.png,stimuli/Social2.png,stimuli/Nonsocial1.png,stimuli/Nonsocial2.png,,"(-0.7, -0.5)",cs_plus_ns,,,,,0,0,0,0,,,,,,,,,3,9,57,9,,,,,,,,,,,,,,,,,,,,,,,,,,,,,,,,,,,,,,,,,,,,,,,,,,,,,,,,,,1679.7178240000067,1681.710800300003,1679.2109544999985,1681.710800300003,1681.710800300003,1681.710800300003,0.006528600002638996,0.013065500010270625,225,none,0,,,1686.7175484000036,1686.7175484000036,0.013649900007294491,0.013649900007294491,0.019819900000584312,0.05453680000209715,0.06148620000749361,0.10309650000999682,0.11007220001192763,1.012783500002115,1690.2104778999928,1694.7103318000009,,,,,,,,,,,,,,,,,,,,,,,,,,,,,10,A,2023-12-08_08h21.21.377,gca_avoidance_task,2022.2.4,144.012120068487,
positions.xlsx,stimuli.xlsx,stimuli/Social1.png,stimuli/Social2.png,stimuli/Nonsocial1.png,stimuli/Nonsocial2.png,,"(0.7, -0.5)",cs_plus_s,,,,,0,0,0,0,,,,,,,,,3,10,58,3,,,,,,,,,,,,,,,,,,,,,,,,,,,,,,,,,,,,,,,,,,,,,,,,,,,,,,,,,,1695.2172189999983,1697.1893482000014,1694.7103318000009,1697.1893482000014,1697.1893482000014,1697.1893482000014,0.0056693000078666955,0.013385300000663847,225,none,0,,,1702.1961374999955,1702.1961374999955,0.01332340000953991,0.01332340000953991,0.020169900002656505,0.05485460000636522,0.06182170000101905,0.10346810000191908,0.1103929000091739,1.0131613999983529,1705.6890286999987,1709.3069411000033,,,,,,,,,,,,,,,,,,,,,,,,,,,,,10,A,2023-12-08_08h21.21.377,gca_avoidance_task,2022.2.4,144.012120068487,
positions.xlsx,stimuli.xlsx,stimuli/Social1.png,stimuli/Social2.png,stimuli/Nonsocial1.png,stimuli/Nonsocial2.png,,"(0.7, -0.5)",cs_minus_s,,,,,0,0,0,0,,,,,,,,,3,11,59,7,,,,,,,,,,,,,,,,,,,,,,,,,,,,,,,,,,,,,,,,,,,,,,,,,,,,,,,,,,1709.8138636999938,1711.2235446999985,1709.3069411000033,1711.2235446999985,1711.2235446999985,1711.2235446999985,0.005917699993005954,0.013420199989923276,230,reward,1,[0.48648490000050515],[0.4864889000018593],1711.7165791000007,1711.7165791000007,0.007239600003231317,0.007239600003231317,0.01846520000253804,0.05311830001301132,0.060112500010291114,0.1018054000014672,0.10869730000558775,1.0045061000128044,1715.2094890000008,1719.0496484000032,,,,,,,,,,,,,,,,,,,,,,,,,,,,,10,A,2023-12-08_08h21.21.377,gca_avoidance_task,2022.2.4,144.012120068487,
positions.xlsx,stimuli.xlsx,stimuli/Social1.png,stimuli/Social2.png,stimuli/Nonsocial1.png,stimuli/Nonsocial2.png,,"(0.7, 0.5)",cs_plus_s,,,,,0,0,0,0,,,,,,,,,3,12,60,2,,,,,,,,,,,,,,,,,,,,,,,,,,,,,,,,,,,,,,,,,,,,,,,,,,,,,,,,,,1719.5565348999953,1720.6536998999945,1719.0496484000032,1720.6536998999945,1720.6536998999945,1720.6536998999945,0.006036999999196269,0.013310399997862987,230,none,0,,,1725.6604574999947,1725.6604574999947,0.013290199989569373,0.013290199989569373,0.020077599998330697,0.05475109998951666,0.06170679999922868,0.10342319999472238,0.11031859999638982,1.0130566999869188,1729.153422000003,1733.1602355000068,,,,,,,,,,,,,,,,,,,,,,,,,,,,,10,A,2023-12-08_08h21.21.377,gca_avoidance_task,2022.2.4,144.012120068487,
positions.xlsx,stimuli.xlsx,stimuli/Social1.png,stimuli/Social2.png,stimuli/Nonsocial1.png,stimuli/Nonsocial2.png,,"(-0.7, -0.5)",cs_minus_ns,,,,,0,0,0,0,,,,,,,,,3,13,61,13,,,,,,,,,,,,,,,,,,,,,,,,,,,,,,,,,,,,,,,,,,,,,,,,,,,,,,,,,,1733.6670778999978,1735.4239691999974,1733.1602355000068,1735.4239691999974,1735.4239691999974,1735.4239691999974,0.00645240000449121,0.013025899999774992,235,reward,1,[0.5487881000008201],[0.5487919000006514],1735.9795232000033,1735.9795232000033,0.007380800001556054,0.007380800001556054,0.01850689999992028,0.053157200003624894,0.060144200004287995,0.10180340000079013,0.10871749999932945,1.0045639000018127,1739.4724703999964,1743.187603600003,,,,,,,,,,,,,,,,,,,,,,,,,,,,,10,A,2023-12-08_08h21.21.377,gca_avoidance_task,2022.2.4,144.012120068487,
positions.xlsx,stimuli.xlsx,stimuli/Social1.png,stimuli/Social2.png,stimuli/Nonsocial1.png,stimuli/Nonsocial2.png,,"(0.7, 0.5)",cs_minus_ns,,,,,0,0,0,0,,,,,,,,,3,14,62,14,,,,,,,,,,,,,,,,,,,,,,,,,,,,,,,,,,,,,,,,,,,,,,,,,,,,,,,,,,1743.6944750999974,1745.3471793999925,1743.187603600003,1745.3471793999925,1745.3471793999925,1745.3471793999925,0.006494200002634898,0.013045100000454113,240,reward,1,[0.6875967000087257],[0.6876004000077955],1746.0415977999946,1746.0415977999946,0.007673700005398132,0.007673700005398132,0.01807030000782106,0.0527217000053497,0.059745799997472204,0.10140539999702014,0.10840100000496022,1.0041181999986293,1749.5345220000017,1753.2913876999955,,,,,,,,,,,,,,,,,,,,,,,,,,,,,10,A,2023-12-08_08h21.21.377,gca_avoidance_task,2022.2.4,144.012120068487,
positions.xlsx,stimuli.xlsx,stimuli/Social1.png,stimuli/Social2.png,stimuli/Nonsocial1.png,stimuli/Nonsocial2.png,,"(0.7, 0.5)",cs_plus_ns,,,,,0,0,0,0,,,,,,,,,3,15,63,10,,,,,,,,,,,,,,,,,,,,,,,,,,,,,,,,,,,,,,,,,,,,,,,,,,,,,,,,,,1753.7982722000015,1754.944026600002,1753.2913876999955,1754.944026600002,1754.944026600002,1754.944026600002,0.006128799999714829,0.013178300010622479,240,none,0,,,1759.9507753999933,1759.9507753999933,0.014049500008695759,0.014049500008695759,0.01994630000262987,0.054652899998473004,0.06155209999997169,0.10327910000341944,0.11016850000305567,1.0129376999975648,1763.4436922000023,1767.2977641000034,,,,,,,,,,,,,,,,,,,,,,,,,,,,,10,A,2023-12-08_08h21.21.377,gca_avoidance_task,2022.2.4,144.012120068487,
positions.xlsx,stimuli.xlsx,stimuli/Social1.png,stimuli/Social2.png,stimuli/Nonsocial1.png,stimuli/Nonsocial2.png,,"(0.7, 0.5)",cs_minus_s,,,,,0,0,0,0,,,,,,,,,4,0,64,6,,,,,,,,,,,,,,,,,,,,,,,,,,,,,,,,,,,,,,,,,,,,,,,,,,,,,,,,,,1767.8046253999928,1769.4295906000043,1767.2977641000034,1769.4295906000043,1769.4295906000043,1769.4295906000043,0.006302499998128042,0.013288200003444217,245,reward,1,[0.5698168999952031],[0.5767306000052486],1770.012922599999,1770.012922599999,0.00705020000168588,0.00705020000168588,0.018492300005163997,0.05313479999313131,0.06010020000394434,0.10174820000247564,0.10874899999180343,1.0044878000044264,1773.505807499998,1777.8112112999952,,,,,,,,,,,,,,,,,,,,,,,,,,,,,10,A,2023-12-08_08h21.21.377,gca_avoidance_task,2022.2.4,144.012120068487,
positions.xlsx,stimuli.xlsx,stimuli/Social1.png,stimuli/Social2.png,stimuli/Nonsocial1.png,stimuli/Nonsocial2.png,,"(0.7, -0.5)",cs_plus_ns,,,,,0,0,0,0,,,,,,,,,4,1,65,11,,,,,,,,,,,,,,,,,,,,,,,,,,,,,,,,,,,,,,,,,,,,,,,,,,,,,,,,,,1778.3180919000006,1779.665309300006,1777.8112112999952,1779.665309300006,1779.665309300006,1779.665309300006,0.006486100013717078,0.013005400003748946,245,shock,1,[0.215787300010561],[0.2157908000081079],1779.8874972000049,1779.8874972000049,0.008100299994111992,0.008100299994111992,0.018215699994470924,0.05284419999225065,0.059837499997229315,0.10145519999787211,0.10840009999810718,1.0042164999904344,1783.3805035999976,1787.7274691000057,,,,,,,,,,,,,,,,,,,,,,,,,,,,,10,A,2023-12-08_08h21.21.377,gca_avoidance_task,2022.2.4,144.012120068487,
positions.xlsx,stimuli.xlsx,stimuli/Social1.png,stimuli/Social2.png,stimuli/Nonsocial1.png,stimuli/Nonsocial2.png,,"(-0.7, -0.5)",cs_plus_ns,,,,,0,0,0,0,,,,,,,,,4,2,66,9,,,,,,,,,,,,,,,,,,,,,,,,,,,,,,,,,,,,,,,,,,,,,,,,,,,,,,,,,,1788.2343818999943,1790.1718443999998,1787.7274691000057,1790.1718443999998,1790.1718443999998,1790.1718443999998,0.006791099993279204,0.013365699996938929,245,shock,1,[0.25051450000319164],[0.25051800000073854],1790.428749300001,1790.428749300001,0.007416599997668527,0.007416599997668527,0.018465800007106736,0.05314380000345409,0.06015930000285152,0.1017442000011215,0.10871570000017527,1.0045034000067972,1793.9217312999972,1797.734057499998,,,,,,,,,,,,,,,,,,,,,,,,,,,,,10,A,2023-12-08_08h21.21.377,gca_avoidance_task,2022.2.4,144.012120068487,
positions.xlsx,stimuli.xlsx,stimuli/Social1.png,stimuli/Social2.png,stimuli/Nonsocial1.png,stimuli/Nonsocial2.png,,"(-0.7, 0.5)",cs_minus_s,,,,,0,0,0,0,,,,,,,,,4,3,67,4,,,,,,,,,,,,,,,,,,,,,,,,,,,,,,,,,,,,,,,,,,,,,,,,,,,,,,,,,,1798.2409363000043,1799.5325486999936,1797.734057499998,1799.5325486999936,1799.5325486999936,1799.5325486999936,0.006282999995164573,0.01320780000241939,250,reward,1,[0.6600049999979092],[0.660008699996979],1800.1992228000017,1800.1992228000017,0.007029000000329688,0.007029000000329688,0.017949799992493354,0.0525976999924751,0.05956229999719653,0.10124289999657776,0.10816089999570977,1.0040088999958243,1803.6921606999967,1807.768413400001,,,,,,,,,,,,,,,,,,,,,,,,,,,,,10,A,2023-12-08_08h21.21.377,gca_avoidance_task,2022.2.4,144.012120068487,
positions.xlsx,stimuli.xlsx,stimuli/Social1.png,stimuli/Social2.png,stimuli/Nonsocial1.png,stimuli/Nonsocial2.png,,"(0.7, 0.5)",cs_plus_ns,,,,,0,0,0,0,,,,,,,,,4,4,68,10,,,,,,,,,,,,,,,,,,,,,,,,,,,,,,,,,,,,,,,,,,,,,,,,,,,,,,,,,,1808.2752560999943,1809.4557851999998,1807.768413400001,1809.4557851999998,1809.4557851999998,1809.4557851999998,0.006964599990169518,0.013081600001896732,250,none,0,,,1814.462553499994,1814.462553499994,0.014029799989657477,0.014029799989657477,0.01987429999280721,0.054543899997952394,0.061548899990157224,0.10320579999824986,0.11010239999450278,1.0128454999940004,1817.955489400003,1822.2747466,,,,,,,,,,,,,,,,,,,,,,,,,,,,,10,A,2023-12-08_08h21.21.377,gca_avoidance_task,2022.2.4,144.012120068487,
positions.xlsx,stimuli.xlsx,stimuli/Social1.png,stimuli/Social2.png,stimuli/Nonsocial1.png,stimuli/Nonsocial2.png,,"(0.7, 0.5)",cs_plus_s,,,,,0,0,0,0,,,,,,,,,4,5,69,2,,,,,,,,,,,,,,,,,,,,,,,,,,,,,,,,,,,,,,,,,,,,,,,,,,,,,,,,,,1822.781675499995,1824.1704966999969,1822.2747466,1824.1704966999969,1824.1704966999969,1824.1704966999969,0.0061550999962491915,0.013130499995895661,250,none,0,,,1829.1772452000005,1829.1772452000005,0.013472799997543916,0.013472799997543916,0.019859699998050928,0.054553399997530505,0.06157909998728428,0.10313179998775013,0.11014150000119116,1.0128232999995816,1832.670190799996,1836.2881284000032,,,,,,,,,,,,,,,,,,,,,,,,,,,,,10,A,2023-12-08_08h21.21.377,gca_avoidance_task,2022.2.4,144.012120068487,
positions.xlsx,stimuli.xlsx,stimuli/Social1.png,stimuli/Social2.png,stimuli/Nonsocial1.png,stimuli/Nonsocial2.png,,"(0.7, -0.5)",cs_plus_s,,,,,0,0,0,0,,,,,,,,,4,6,70,3,,,,,,,,,,,,,,,,,,,,,,,,,,,,,,,,,,,,,,,,,,,,,,,,,,,,,,,,,,1836.7949799000053,1838.7254924000008,1836.2881284000032,1838.7254924000008,1838.7254924000008,1838.7254924000008,0.005876999988686293,0.013165999989723787,250,none,0,,,1843.732231899994,1843.732231899994,0.013647599989781156,0.013647599989781156,0.019935899996198714,0.05464469999424182,0.06155949999811128,0.10322239999368321,0.11014809999323916,1.0128939999995055,1847.225170100006,1851.6972147000051,,,,,,,,,,,,,,,,,,,,,,,,,,,,,10,A,2023-12-08_08h21.21.377,gca_avoidance_task,2022.2.4,144.012120068487,
positions.xlsx,stimuli.xlsx,stimuli/Social1.png,stimuli/Social2.png,stimuli/Nonsocial1.png,stimuli/Nonsocial2.png,,"(-0.7, 0.5)",cs_plus_s,,,,,0,0,0,0,,,,,,,,,4,7,71,0,,,,,,,,,,,,,,,,,,,,,,,,,,,,,,,,,,,,,,,,,,,,,,,,,,,,,,,,,,1852.204128700003,1853.2248817999935,1851.6972147000051,1853.2248817999935,1853.2248817999935,1853.2248817999935,0.005662400013534352,0.013371900000493042,250,shock,0,,,1854.3012839000003,1854.3012839000003,0.006858500011730939,0.006858500011730939,0.011672700013150461,0.05325930000981316,0.06024980000802316,0.1018406000075629,0.10882090000086464,1.0046225000114646,1857.8011322999955,1861.919047599993,,,,,,,,,,,,,,,,,,,,,,,,,,,,,10,A,2023-12-08_08h21.21.377,gca_avoidance_task,2022.2.4,144.012120068487,
positions.xlsx,stimuli.xlsx,stimuli/Social1.png,stimuli/Social2.png,stimuli/Nonsocial1.png,stimuli/Nonsocial2.png,,"(0.7, 0.5)",cs_minus_ns,,,,,0,0,0,0,,,,,,,,,4,8,72,14,,,,,,,,,,,,,,,,,,,,,,,,,,,,,,,,,,,,,,,,,,,,,,,,,,,,,,,,,,1862.4258979000006,1864.1272288000036,1861.919047599993,1864.1272288000036,1864.1272288000036,1864.1272288000036,0.006605100003071129,0.013099300005706027,255,reward,1,[0.8821447000082117],[0.8821484000072815],1865.0160720999993,1865.0160720999993,0.007876500007114373,0.007876500007114373,0.01819950000208337,0.052856200010864995,0.05980630000703968,0.10150570000405423,0.10846100001072045,1.0042694000003394,1868.5090845999948,1872.0783335000015,,,,,,,,,,,,,,,,,,,,,,,,,,,,,10,A,2023-12-08_08h21.21.377,gca_avoidance_task,2022.2.4,144.012120068487,
positions.xlsx,stimuli.xlsx,stimuli/Social1.png,stimuli/Social2.png,stimuli/Nonsocial1.png,stimuli/Nonsocial2.png,,"(-0.7, 0.5)",cs_minus_ns,,,,,0,0,0,0,,,,,,,,,4,9,73,12,,,,,,,,,,,,,,,,,,,,,,,,,,,,,,,,,,,,,,,,,,,,,,,,,,,,,,,,,,1872.5852502000052,1874.0365732999926,1872.0783335000015,1874.0365732999926,1874.0365732999926,1874.0365732999926,0.006773100001737475,0.013314900003024377,260,reward,1,[0.7364927000016905],[0.7364962999999989],1874.7796139999991,1874.7796139999991,0.007437099993694574,0.007437099993694574,0.01842180000676308,0.053118399999220856,0.060067099999287166,0.10168399999383837,0.10867899999720976,1.0044410999980755,1878.2725972000044,1882.2515693000023,,,,,,,,,,,,,,,,,,,,,,,,,,,,,10,A,2023-12-08_08h21.21.377,gca_avoidance_task,2022.2.4,144.012120068487,
positions.xlsx,stimuli.xlsx,stimuli/Social1.png,stimuli/Social2.png,stimuli/Nonsocial1.png,stimuli/Nonsocial2.png,,"(-0.7, 0.5)",cs_plus_ns,,,,,0,0,0,0,,,,,,,,,4,10,74,8,,,,,,,,,,,,,,,,,,,,,,,,,,,,,,,,,,,,,,,,,,,,,,,,,,,,,,,,,,1882.7584862999938,1884.1542416000011,1882.2515693000023,1884.1542416000011,1884.1542416000011,1884.1542416000011,0.006616099999519065,0.012912599995615892,260,shock,1,[0.2500285999994958],[0.2500322999985656],1884.4111775000056,1884.4111775000056,0.007594599999720231,0.007594599999720231,0.01812400000926573,0.05283080000663176,0.059776900001452304,0.10143460000108462,0.10839710000436753,1.0041720000008354,1887.9041337999952,1891.4733927000052,,,,,,,,,,,,,,,,,,,,,,,,,,,,,10,A,2023-12-08_08h21.21.377,gca_avoidance_task,2022.2.4,144.012120068487,
positions.xlsx,stimuli.xlsx,stimuli/Social1.png,stimuli/Social2.png,stimuli/Nonsocial1.png,stimuli/Nonsocial2.png,,"(0.7, -0.5)",cs_minus_s,,,,,0,0,0,0,,,,,,,,,4,11,75,7,,,,,,,,,,,,,,,,,,,,,,,,,,,,,,,,,,,,,,,,,,,,,,,,,,,,,,,,,,1891.9803135999973,1893.3483604000066,1891.4733927000052,1893.3483604000066,1893.3483604000066,1893.3483604000066,0.006436900002881885,0.012964599998667836,265,reward,1,[1.2291382999974303],[1.2291420999972615],1894.584397700004,1894.584397700004,0.007113800005754456,0.007113800005754456,0.018228700006147847,0.05283650000637863,0.05985410000721458,0.10146930000337306,0.10844579999684356,1.0042414000054123,1898.0773599999957,1901.8896781999938,,,,,,,,,,,,,,,,,,,,,,,,,,,,,10,A,2023-12-08_08h21.21.377,gca_avoidance_task,2022.2.4,144.012120068487,
positions.xlsx,stimuli.xlsx,stimuli/Social1.png,stimuli/Social2.png,stimuli/Nonsocial1.png,stimuli/Nonsocial2.png,,"(-0.7, -0.5)",cs_minus_ns,,,,,0,0,0,0,,,,,,,,,4,12,76,13,,,,,,,,,,,,,,,,,,,,,,,,,,,,,,,,,,,,,,,,,,,,,,,,,,,,,,,,,,1902.3965663999988,1903.6812548000016,1901.8896781999938,1903.6812548000016,1903.6812548000016,1903.6812548000016,0.006507600002805702,0.013196799991419539,270,reward,1,[0.5002616999991005],[0.5070252000004984],1904.1951770000014,1904.1951770000014,0.007456100007402711,0.007456100007402711,0.018656000000191852,0.05333880000398494,0.060285200001089834,0.10189669999817852,0.10884980000264477,1.004655400000047,1907.6881022000016,1911.2573895999958,,,,,,,,,,,,,,,,,,,,,,,,,,,,,10,A,2023-12-08_08h21.21.377,gca_avoidance_task,2022.2.4,144.012120068487,
positions.xlsx,stimuli.xlsx,stimuli/Social1.png,stimuli/Social2.png,stimuli/Nonsocial1.png,stimuli/Nonsocial2.png,,"(-0.7, -0.5)",cs_minus_s,,,,,0,0,0,0,,,,,,,,,4,13,77,5,,,,,,,,,,,,,,,,,,,,,,,,,,,,,,,,,,,,,,,,,,,,,,,,,,,,,,,,,,1911.764216399999,1913.0280716999987,1911.2573895999958,1913.0280716999987,1913.0280716999987,1913.0280716999987,0.006625800000620075,0.013131600004271604,275,reward,1,[0.5072906999994302],[0.5072944999992615],1913.5419616,1913.5419616,0.007143900002120063,0.007143900002120063,0.018072499995469116,0.05281769999419339,0.05972579999070149,0.10141379998822231,0.10833209998963866,1.0041153999918606,1917.0349341999972,1921.5208228999982,,,,,,,,,,,,,,,,,,,,,,,,,,,,,10,A,2023-12-08_08h21.21.377,gca_avoidance_task,2022.2.4,144.012120068487,
positions.xlsx,stimuli.xlsx,stimuli/Social1.png,stimuli/Social2.png,stimuli/Nonsocial1.png,stimuli/Nonsocial2.png,,"(0.7, -0.5)",cs_minus_ns,,,,,0,0,0,0,,,,,,,,,4,14,78,15,,,,,,,,,,,,,,,,,,,,,,,,,,,,,,,,,,,,,,,,,,,,,,,,,,,,,,,,,,1922.0277302000031,1923.1596394999942,1921.5208228999982,1923.1596394999942,1923.1596394999942,1923.1596394999942,0.0061960000020917505,0.01293729999451898,280,reward,1,[1.1319436000048881],[1.1319475000054808],1924.2985232000065,1924.2985232000065,0.008256200002506375,0.008256200002506375,0.018493399998988025,0.053154799999902025,0.060110899998107925,0.101812399996561,0.10872639999433886,1.004473799999687,1927.791448200005,1931.5829841999948,,,,,,,,,,,,,,,,,,,,,,,,,,,,,10,A,2023-12-08_08h21.21.377,gca_avoidance_task,2022.2.4,144.012120068487,
