posFile,stimFile,cs_plus_s,cs_minus_s,cs_plus_ns,cs_minus_ns,stimtype,position,trialtype,trials_threshold.thisRepN,trials_threshold.thisTrialN,trials_threshold.thisN,trials_threshold.thisIndex,blocks.thisRepN,blocks.thisTrialN,blocks.thisN,blocks.thisIndex,ratingtrials1.thisRepN,ratingtrials1.thisTrialN,ratingtrials1.thisN,ratingtrials1.thisIndex,learning_trials.thisRepN,learning_trials.thisTrialN,learning_trials.thisN,learning_trials.thisIndex,trials.thisRepN,trials.thisTrialN,trials.thisN,trials.thisIndex,ratingtrials2.thisRepN,ratingtrials2.thisTrialN,ratingtrials2.thisN,ratingtrials2.thisIndex,testtrials.thisRepN,testtrials.thisTrialN,testtrials.thisN,testtrials.thisIndex,ratingtrials3.thisRepN,ratingtrials3.thisTrialN,ratingtrials3.thisN,ratingtrials3.thisIndex,textStart.started,spaceStart.started,spaceStart.keys,spaceStart.rt,textPainThreshold.started,spacePainThreshold.started,spacePainThreshold.keys,spacePainThreshold.rt,textRateT.started,text_noPainT.started,text_slightPainT.started,text_highPainT.started,sliderPainT.started,keys_PainT.started,sliderPainT.response,sliderPainT.rt,keys_PainT.keys,keys_PainT.rt,fixcrossT.started,portShock1T.started,portShock1T.stopped,portShock2T.started,portShock2T.stopped,portShock3T.started,portShock3T.stopped,fixcrossT.stopped,text_ETCalibration.started,spaceETCalibration.started,spaceETCalibration.keys,spaceETCalibration.rt,textStartExp.started,spaceStartExp.started,spaceStartExp.keys,spaceStartExp.rt,imageRating.started,sliderStim.started,spaceStim.started,sliderStim.response,sliderStim.rt,spaceStim.keys,spaceStim.rt,textStartTask.started,spaceStartTask.started,spaceStartTask.keys,spaceStartTask.rt,blankScreen.started,blankScreen.stopped,fixcross.started,image.started,roi.started,gazeCursor.started,portImage.started,portImage.stopped,score,outcome,roi.numLooks,roi.timesOn,roi.timesOff,imageFeedback.started,gazeCursor_Feedback.started,soundFeedback.started,portShock1.started,portShock1.stopped,portShock2.started,portShock2.stopped,portShock3.started,portShock3.stopped,soundFeedback.stopped,fixcrossE.started,fixcrossE.stopped,textRepeatTask.started,textboxRepeatInstruction.started,textRepeatSpace.started,spaceRepeatTask.started,spaceRepeatTask.keys,spaceRepeatTask.rt,textRate.started,text_noPain.started,text_slightPain.started,text_highPain.started,sliderPain.started,textSpacePain.started,spacePain.started,sliderPain.response,sliderPain.rt,spacePain.keys,spacePain.rt,textTestInstr.started,spaceTestInstr.started,spaceTestInstr.keys,spaceTestInstr.rt,imageTest.started,roiTest.started,portTestImage.started,portTestImage.stopped,roiTest.numLooks,roiTest.timesOn,roiTest.timesOff,participant,group,date,expName,psychopyVersion,frameRate,
,,,,,,,,,,,,,,,,,,,,,,,,,,,,,,,,,,,,,,,,,16.810429699951783,16.810429699951783,space,15.217462899978273,,,,,,,,,,,,,,,,,,,,,,,,,,,,,,,,,,,,,,,,,,,,,,,,,,,,,,,,,,,,,,,,,,,,,,,,,,,,,,,,,,,,,,,,,,,,,,,1,D,2023-12-05_08h30.18.539,gca_avoidance_task,2022.2.4,143.97189665949756,
,,,,,,,,,,,,,,,,,,,,,,,,,,,,,,,,,,,,,,,,,,,,,32.0393731999211,32.0393731999211,space,2.724320000037551,,,,,,,,,,,,,,,,,,,,,,,,,,,,,,,,,,,,,,,,,,,,,,,,,,,,,,,,,,,,,,,,,,,,,,,,,,,,,,,,,,,,,,,,,,,1,D,2023-12-05_08h30.18.539,gca_avoidance_task,2022.2.4,143.97189665949756,
,,,,,,,,,0,0,0,0,,,,,,,,,,,,,,,,,,,,,,,,,,,,,,,,,,,,,35.81740339996759,35.81740339996759,35.81740339996759,35.81740339996759,35.81740339996759,35.81740339996759,None,None,s,19.92156279995106,56.3556650999235,0.10152879997622222,0.10824860003776848,0.1498894999967888,0.15691230003722012,0.2055059999693185,0.2123839999549091,57.1153952999739,,,,,,,,,,,,,,,,,,,,,,,,,,,,,,,,,,,,,,,,,,,,,,,,,,,,,,,,,,,,,,,,,,,,,,,,,1,D,2023-12-05_08h30.18.539,gca_avoidance_task,2022.2.4,143.97189665949756,
,,,,,,,,,1,0,1,0,,,,,,,,,,,,,,,,,,,,,,,,,,,,,,,,,,,,,57.1153952999739,57.1153952999739,57.1153952999739,57.1153952999739,57.1153952999739,57.1153952999739,1.0,5.0637656999751925,s,11.792299099965021,69.42627519997768,0.10292189999017864,0.10985789995174855,0.15157109999563545,0.15851869992911816,0.20016929996199906,0.20707439992111176,70.18315449997317,,,,,,,,,,,,,,,,,,,,,,,,,,,,,,,,,,,,,,,,,,,,,,,,,,,,,,,,,,,,,,,,,,,,,,,,,1,D,2023-12-05_08h30.18.539,gca_avoidance_task,2022.2.4,143.97189665949756,
,,,,,,,,,2,0,2,0,,,,,,,,,,,,,,,,,,,,,,,,,,,,,,,,,,,,,70.18315449997317,70.18315449997317,70.18315449997317,70.18315449997317,70.18315449997317,70.18315449997317,3.0,2.8093777999747545,s,8.73973519995343,79.41887419996783,0.10137519997078925,0.10834409995004535,0.1499818000011146,0.15692599990870804,0.20555399998556823,0.21249549998901784,80.17578910000157,,,,,,,,,,,,,,,,,,,,,,,,,,,,,,,,,,,,,,,,,,,,,,,,,,,,,,,,,,,,,,,,,,,,,,,,,1,D,2023-12-05_08h30.18.539,gca_avoidance_task,2022.2.4,143.97189665949756,
,,,,,,,,,3,0,3,0,,,,,,,,,,,,,,,,,,,,,,,,,,,,,,,,,,,,,80.17578910000157,80.17578910000157,80.17578910000157,80.17578910000157,80.17578910000157,80.17578910000157,5.0,3.643822200014256,s,10.17983609996736,90.86976239993237,0.1001115000108257,0.10706900001969188,0.15569759998470545,0.1626531999791041,0.20433199999388307,0.21125699998810887,91.61974759993609,,,,,,,,,,,,,,,,,,,,,,,,,,,,,,,,,,,,,,,,,,,,,,,,,,,,,,,,,,,,,,,,,,,,,,,,,1,D,2023-12-05_08h30.18.539,gca_avoidance_task,2022.2.4,143.97189665949756,
,,,,,,,,,4,0,4,0,,,,,,,,,,,,,,,,,,,,,,,,,,,,,,,,,,,,,91.61974759993609,91.61974759993609,91.61974759993609,91.61974759993609,91.61974759993609,91.61974759993609,6.0,3.6281288999598473,s,9.135277700028382,101.27212789992336,0.10527250007726252,0.11219700006768107,0.1538550000404939,0.16080320009496063,0.20245630003046244,0.20944710006006062,,,,,,,,,,,,,,,,,,,,,,,,,,,,,,,,,,,,,,,,,,,,,,,,,,,,,,,,,,,,,,,,,,,,,,,,,,1,D,2023-12-05_08h30.18.539,gca_avoidance_task,2022.2.4,143.97189665949756,
,,,,,,,,,5,0,5,0,,,,,,,,,,,,,,,,,,,,,,,,,,,,,,,,,,,,,102.02207209996413,102.02207209996413,102.02207209996413,102.02207209996413,102.02207209996413,102.02207209996413,6.0,5.704807400004938,s,10.900827700039372,113.43132319999859,0.10071290004998446,0.10766750003676862,0.14932910003699362,0.1563211000757292,0.2049445000011474,0.21184870006982237,114.18823179998435,,,,,,,,,,,,,,,,,,,,,,,,,,,,,,,,,,,,,,,,,,,,,,,,,,,,,,,,,,,,,,,,,,,,,,,,,1,D,2023-12-05_08h30.18.539,gca_avoidance_task,2022.2.4,143.97189665949756,
,,,,,,,,,6,0,6,0,,,,,,,,,,,,,,,,,,,,,,,,,,,,,,,,,,,,,114.18823179998435,114.18823179998435,114.18823179998435,114.18823179998435,114.18823179998435,114.18823179998435,5.0,4.5245424000313506,s,10.462606300017796,125.22942589991726,0.10126219992525876,0.10819509997963905,0.14989190001506358,0.15684109996072948,0.2054659000132233,0.2123882999876514,126.00023200002033,,,,,,,,,,,,,,,,,,,,,,,,,,,,,,,,,,,,,,,,,,,,,,,,,,,,,,,,,,,,,,,,,,,,,,,,,1,D,2023-12-05_08h30.18.539,gca_avoidance_task,2022.2.4,143.97189665949756,
,,,,,,,,,7,0,7,0,,,,,,,,,,,,,,,,,,,,,,,,,,,,,,,,,,,,,126.00023200002033,126.00023200002033,126.00023200002033,126.00023200002033,126.00023200002033,126.00023200002033,7.0,2.4146974000614136,s,8.314818399958313,134.8262354999315,0.09999620006419718,0.10693950008135289,0.15551300009246916,0.16247150010894984,0.20412100001703948,0.21107760001905262,135.67335679999087,,,,,,,,,,,,,,,,,,,,,,,,,,,,,,,,,,,,,,,,,,,,,,,,,,,,,,,,,,,,,,,,,,,,,,,,,1,D,2023-12-05_08h30.18.539,gca_avoidance_task,2022.2.4,143.97189665949756,
,,,,,,,,,8,0,8,0,,,,,,,,,,,,,,,,,,,,,,,,,,,,,,,,,,,,,135.67335679999087,135.67335679999087,135.67335679999087,135.67335679999087,135.67335679999087,135.67335679999087,6.0,3.2873869000468403,g,24.626316499896348,160.8112175000133,,,,,,,,,,,,,,,,,,,,,,,,,,,,,,,,,,,,,,,,,,,,,,,,,,,,,,,,,,,,,,,,,,,,,,,,,,,,,,,,1,D,2023-12-05_08h30.18.539,gca_avoidance_task,2022.2.4,143.97189665949756,
,,,,,,,,,,,,,,,,,,,,,,,,,,,,,,,,,,,,,,,,,,,,,,,,,,,,,,,,,,,,,,,,,,,160.8112175000133,160.8112175000133,space,5.824471400002949,,,,,,,,,,,,,,,,,,,,,,,,,,,,,,,,,,,,,,,,,,,,,,,,,,,,,,,,,,,,,,,,,,,,,1,D,2023-12-05_08h30.18.539,gca_avoidance_task,2022.2.4,143.97189665949756,
positions.xlsx,stimuli.xlsx,stimuli/Social2.png,stimuli/Social1.png,stimuli/Nonsocial2.png,stimuli/Nonsocial1.png,cs_minus_s,,,,,,,0,0,0,0,0,0,0,2,,,,,,,,,,,,,,,,,,,,,,,,,,,,,,,,,,,,,,,,,,,,,,,,,,,385.7632940999465,385.7632940999465,space,15.38390870008152,401.2037658999907,401.2037658999907,406.71743319998495,5.0,5.5041558999801055,space,1.3409354999894276,,,,,,,,,,,,,,,,,,,,,,,,,,,,,,,,,,,,,,,,,,,,,,,,,,,,,,,,,,1,D,2023-12-05_08h30.18.539,gca_avoidance_task,2022.2.4,143.97189665949756,
positions.xlsx,stimuli.xlsx,stimuli/Social2.png,stimuli/Social1.png,stimuli/Nonsocial2.png,stimuli/Nonsocial1.png,cs_minus_ns,,,,,,,0,0,0,0,0,1,1,3,,,,,,,,,,,,,,,,,,,,,,,,,,,,,,,,,,,,,,,,,,,,,,,,,,,,,,,408.0924019999802,408.0924019999802,415.48095060000196,5.0,7.381895500002429,space,1.0984154000179842,,,,,,,,,,,,,,,,,,,,,,,,,,,,,,,,,,,,,,,,,,,,,,,,,,,,,,,,,,1,D,2023-12-05_08h30.18.539,gca_avoidance_task,2022.2.4,143.97189665949756,
positions.xlsx,stimuli.xlsx,stimuli/Social2.png,stimuli/Social1.png,stimuli/Nonsocial2.png,stimuli/Nonsocial1.png,cs_plus_ns,,,,,,,0,0,0,0,0,2,2,1,,,,,,,,,,,,,,,,,,,,,,,,,,,,,,,,,,,,,,,,,,,,,,,,,,,,,,,416.61284389998764,416.61284389998764,421.41818779997993,6.0,4.79897489992436,space,0.9053390000481158,,,,,,,,,,,,,,,,,,,,,,,,,,,,,,,,,,,,,,,,,,,,,,,,,,,,,,,,,,1,D,2023-12-05_08h30.18.539,gca_avoidance_task,2022.2.4,143.97189665949756,
positions.xlsx,stimuli.xlsx,stimuli/Social2.png,stimuli/Social1.png,stimuli/Nonsocial2.png,stimuli/Nonsocial1.png,cs_plus_s,,,,,,,0,0,0,0,0,3,3,0,,,,,,,,,,,,,,,,,,,,,,,,,,,,,,,,,,,,,,,,,,,,,,,,,,,,,,,422.35566110000946,422.35566110000946,426.9318469999125,4.0,4.56362559995614,space,0.8073542999336496,,,,,,,,,,,,,,,,,,,,,,,,,,,,,,,,,,,,,,,,,,,,,,,,,,,,,,,,,,1,D,2023-12-05_08h30.18.539,gca_avoidance_task,2022.2.4,143.97189665949756,
positions.xlsx,stimuli.xlsx,stimuli/Social2.png,stimuli/Social1.png,stimuli/Nonsocial2.png,stimuli/Nonsocial1.png,,"(-0.7, -0.5)",cs_minus_ns,,,,,0,0,0,0,,,,,0,0,0,13,,,,,,,,,,,,,,,,,,,,,,,,,,,,,,,,,,,,,,,,,,,,,,,,,,,,,,,,,,427.75128389999736,427.75128389999736,space,32.4752857000567,462.6178315000143,464.46497349999845,462.1317427000031,464.46497349999845,464.46497349999845,464.46497349999845,0.015414800029248,0.02007269999012351,5,reward,1,[0.2431667000055313],[0.24317060003522784],464.7288564000046,464.7288564000046,0.022675100015476346,0.022675100015476346,0.039040799951180816,0.05288550001569092,0.05984899995382875,0.10148289997596294,0.1084360999520868,1.0180983999744058,468.2010046999203,471.82578159996774,,,,,,,,,,,,,,,,,,,,,,,,,,,,,1,D,2023-12-05_08h30.18.539,gca_avoidance_task,2022.2.4,143.97189665949756,
positions.xlsx,stimuli.xlsx,stimuli/Social2.png,stimuli/Social1.png,stimuli/Nonsocial2.png,stimuli/Nonsocial1.png,,"(0.7, -0.5)",cs_plus_s,,,,,0,0,0,0,,,,,0,1,1,3,,,,,,,,,,,,,,,,,,,,,,,,,,,,,,,,,,,,,,,,,,,,,,,,,,,,,,,,,,,,,,472.33268669992685,474.12429379997775,471.82578159996774,474.12429379997775,474.12429379997775,474.12429379997775,0.006957500008866191,0.013036999967880547,5,shock,1,[0.22212649998255074],[0.22212990000844002],474.35337629995774,474.35337629995774,0.011200399952940643,0.011200399952940643,0.018457100028172135,0.053153099957853556,0.06013360002543777,0.10188390000257641,0.10881969996262342,1.0045150000369176,477.84634829999413,481.7351250000065,,,,,,,,,,,,,,,,,,,,,,,,,,,,,1,D,2023-12-05_08h30.18.539,gca_avoidance_task,2022.2.4,143.97189665949756,
positions.xlsx,stimuli.xlsx,stimuli/Social2.png,stimuli/Social1.png,stimuli/Nonsocial2.png,stimuli/Nonsocial1.png,,"(-0.7, 0.5)",cs_minus_ns,,,,,0,0,0,0,,,,,0,2,2,12,,,,,,,,,,,,,,,,,,,,,,,,,,,,,,,,,,,,,,,,,,,,,,,,,,,,,,,,,,,,,,482.2419551999774,483.526647199993,481.7351250000065,483.526647199993,483.526647199993,483.526647199993,0.007176400045864284,0.013402000069618225,10,reward,1,[0.208909000037238],[0.20891290006693453],483.74196719995234,483.74196719995234,0.007689099991694093,0.007689099991694093,0.01870080002117902,0.053372800000943244,0.060275600058957934,0.10193900007288903,0.10889470006804913,1.0047124000266194,487.2348760999739,490.9638809999451,,,,,,,,,,,,,,,,,,,,,,,,,,,,,1,D,2023-12-05_08h30.18.539,gca_avoidance_task,2022.2.4,143.97189665949756,
positions.xlsx,stimuli.xlsx,stimuli/Social2.png,stimuli/Social1.png,stimuli/Nonsocial2.png,stimuli/Nonsocial1.png,,"(-0.7, 0.5)",cs_plus_ns,,,,,0,0,0,0,,,,,0,3,3,8,,,,,,,,,,,,,,,,,,,,,,,,,,,,,,,,,,,,,,,,,,,,,,,,,,,,,,,,,,,,,,491.47075370000675,493.10958209994715,490.9638809999451,493.10958209994715,493.10958209994715,493.10958209994715,0.007270399946719408,0.013318500015884638,10,shock,1,[0.22951689991168678],[0.2295205999398604],493.3456933000125,493.3456933000125,0.007921800017356873,0.007921800017356873,0.018678999971598387,0.05330350005533546,0.060261999955400825,0.10194640001282096,0.10894379997625947,1.0046585999662057,496.83862239995506,500.6440331999911,,,,,,,,,,,,,,,,,,,,,,,,,,,,,1,D,2023-12-05_08h30.18.539,gca_avoidance_task,2022.2.4,143.97189665949756,
positions.xlsx,stimuli.xlsx,stimuli/Social2.png,stimuli/Social1.png,stimuli/Nonsocial2.png,stimuli/Nonsocial1.png,,"(-0.7, -0.5)",cs_plus_s,,,,,0,0,0,0,,,,,0,4,4,1,,,,,,,,,,,,,,,,,,,,,,,,,,,,,,,,,,,,,,,,,,,,,,,,,,,,,,,,,,,,,,501.1509011000162,502.3661579999607,500.6440331999911,502.3661579999607,502.3661579999607,502.3661579999607,0.0060882000252604485,0.013068199972622097,10,shock,1,[0.20842220005579293],[0.20842609996907413],502.5814597000135,502.5814597000135,0.007780500105582178,0.007780500105582178,0.01835730008315295,0.05294520000461489,0.05991360009647906,0.10152500006370246,0.1084755000192672,1.004319400060922,506.0743215000257,509.61587119998876,,,,,,,,,,,,,,,,,,,,,,,,,,,,,1,D,2023-12-05_08h30.18.539,gca_avoidance_task,2022.2.4,143.97189665949756,
positions.xlsx,stimuli.xlsx,stimuli/Social2.png,stimuli/Social1.png,stimuli/Nonsocial2.png,stimuli/Nonsocial1.png,,"(-0.7, 0.5)",cs_plus_s,,,,,0,0,0,0,,,,,0,5,5,0,,,,,,,,,,,,,,,,,,,,,,,,,,,,,,,,,,,,,,,,,,,,,,,,,,,,,,,,,,,,,,510.12273709999863,511.6574069999624,509.61587119998876,511.6574069999624,511.6574069999624,511.6574069999624,0.0062235998921096325,0.013518199906684458,10,shock,1,[0.25053309998475015],[0.2505362998927012],511.9143323999597,511.9143323999597,0.00767469999846071,0.00767469999846071,0.01854369998909533,0.05324549996294081,0.06017079995945096,0.1018306000623852,0.10874880000483245,1.0045656999573112,515.4072573999874,519.3515488000121,,,,,,,,,,,,,,,,,,,,,,,,,,,,,1,D,2023-12-05_08h30.18.539,gca_avoidance_task,2022.2.4,143.97189665949756,
positions.xlsx,stimuli.xlsx,stimuli/Social2.png,stimuli/Social1.png,stimuli/Nonsocial2.png,stimuli/Nonsocial1.png,,"(-0.7, 0.5)",cs_minus_s,,,,,0,0,0,0,,,,,0,6,6,4,,,,,,,,,,,,,,,,,,,,,,,,,,,,,,,,,,,,,,,,,,,,,,,,,,,,,,,,,,,,,,519.8584674999584,521.3375201999443,519.3515488000121,521.3375201999443,521.3375201999443,521.3375201999443,0.007018200005404651,0.013116099988110363,15,reward,1,[0.44510910008102655],[0.4451126999920234],521.7889444999164,521.7889444999164,0.007311600027605891,0.007311600027605891,0.018296599970199168,0.05290410004090518,0.05981939996127039,0.10151670000050217,0.10850089997984469,1.0042319999774918,525.2818396999501,529.2122469999595,,,,,,,,,,,,,,,,,,,,,,,,,,,,,1,D,2023-12-05_08h30.18.539,gca_avoidance_task,2022.2.4,143.97189665949756,
positions.xlsx,stimuli.xlsx,stimuli/Social2.png,stimuli/Social1.png,stimuli/Nonsocial2.png,stimuli/Nonsocial1.png,,"(0.7, 0.5)",cs_plus_ns,,,,,0,0,0,0,,,,,0,7,7,10,,,,,,,,,,,,,,,,,,,,,,,,,,,,,,,,,,,,,,,,,,,,,,,,,,,,,,,,,,,,,,529.7191469999962,531.0385311999125,529.2122469999595,531.0385311999125,531.0385311999125,531.0385311999125,0.007149799959734082,0.013404499972239137,15,shock,1,[0.24357379996217787],[0.2435774999903515],531.2885343999369,531.2885343999369,0.00791480008047074,0.00791480008047074,0.018184300046414137,0.05289010005071759,0.05980689998250455,0.10145910002756864,0.10840730008203536,1.0041992000769824,534.7815302999225,538.4132569999201,,,,,,,,,,,,,,,,,,,,,,,,,,,,,1,D,2023-12-05_08h30.18.539,gca_avoidance_task,2022.2.4,143.97189665949756,
positions.xlsx,stimuli.xlsx,stimuli/Social2.png,stimuli/Social1.png,stimuli/Nonsocial2.png,stimuli/Nonsocial1.png,,"(-0.7, -0.5)",cs_plus_ns,,,,,0,0,0,0,,,,,0,8,8,9,,,,,,,,,,,,,,,,,,,,,,,,,,,,,,,,,,,,,,,,,,,,,,,,,,,,,,,,,,,,,,538.9201180000091,540.6075775999343,538.4132569999201,540.6075775999343,540.6075775999343,540.6075775999343,0.00726559991016984,0.012842399999499321,15,shock,1,[0.6318393999245018],[0.631842999951914],541.2465046999278,541.2465046999278,0.008867600001394749,0.008867600001394749,0.018332700012251735,0.05291929992381483,0.05987759993877262,0.10159660002682358,0.10851239995099604,1.0042997000273317,544.7394261999289,548.4822601999622,,,,,,,,,,,,,,,,,,,,,,,,,,,,,1,D,2023-12-05_08h30.18.539,gca_avoidance_task,2022.2.4,143.97189665949756,
positions.xlsx,stimuli.xlsx,stimuli/Social2.png,stimuli/Social1.png,stimuli/Nonsocial2.png,stimuli/Nonsocial1.png,,"(0.7, 0.5)",cs_minus_s,,,,,0,0,0,0,,,,,0,9,9,6,,,,,,,,,,,,,,,,,,,,,,,,,,,,,,,,,,,,,,,,,,,,,,,,,,,,,,,,,,,,,,548.9891478000209,550.8987947999267,548.4822601999622,550.8987947999267,550.8987947999267,550.8987947999267,0.0068177999928593636,0.01332260004710406,20,reward,1,[0.5002252000849694],[0.5002287999959663],551.4126762999222,551.4126762999222,0.008199100033380091,0.008199100033380091,0.025320100015960634,0.05306259996723384,0.06001140002626926,0.1016568000195548,0.10860280005726963,1.0044137999648228,554.8987123999977,558.8429313999368,,,,,,,,,,,,,,,,,,,,,,,,,,,,,1,D,2023-12-05_08h30.18.539,gca_avoidance_task,2022.2.4,143.97189665949756,
positions.xlsx,stimuli.xlsx,stimuli/Social2.png,stimuli/Social1.png,stimuli/Nonsocial2.png,stimuli/Nonsocial1.png,,"(0.7, 0.5)",cs_minus_ns,,,,,0,0,0,0,,,,,0,10,10,14,,,,,,,,,,,,,,,,,,,,,,,,,,,,,,,,,,,,,,,,,,,,,,,,,,,,,,,,,,,,,,559.3498548999196,561.2316857000114,558.8429313999368,561.2316857000114,561.2316857000114,561.2316857000114,0.007819100050255656,0.013419299968518317,25,reward,1,[0.8201070000650361],[0.8201106999767944],562.0580432999413,562.0580432999413,0.008175100083462894,0.008175100083462894,0.018336900044232607,0.052973899990320206,0.05996480002067983,0.10159600002225488,0.10858480003662407,1.0043157000327483,565.5510358000174,569.4327873999719,,,,,,,,,,,,,,,,,,,,,,,,,,,,,1,D,2023-12-05_08h30.18.539,gca_avoidance_task,2022.2.4,143.97189665949756,
positions.xlsx,stimuli.xlsx,stimuli/Social2.png,stimuli/Social1.png,stimuli/Nonsocial2.png,stimuli/Nonsocial1.png,,"(0.7, -0.5)",cs_minus_ns,,,,,0,0,0,0,,,,,0,11,11,15,,,,,,,,,,,,,,,,,,,,,,,,,,,,,,,,,,,,,,,,,,,,,,,,,,,,,,,,,,,,,,569.9396394999931,571.1062882000115,569.4327873999719,571.1062882000115,571.1062882000115,571.1062882000115,0.006965299951843917,0.013207299984060228,30,reward,1,[2.417320500011556],[2.4173239999217913],573.5297929999651,573.5297929999651,0.007507100002840161,0.007507100002840161,0.018109300057403743,0.052734100027009845,0.05970530002377927,0.10136019997298717,0.10833720001392066,1.0041066999547184,577.0227841999149,580.5920143999392,,,,,,,,,,,,,,,,,,,,,,,,,,,,,1,D,2023-12-05_08h30.18.539,gca_avoidance_task,2022.2.4,143.97189665949756,
positions.xlsx,stimuli.xlsx,stimuli/Social2.png,stimuli/Social1.png,stimuli/Nonsocial2.png,stimuli/Nonsocial1.png,,"(0.7, -0.5)",cs_minus_s,,,,,0,0,0,0,,,,,0,12,12,7,,,,,,,,,,,,,,,,,,,,,,,,,,,,,,,,,,,,,,,,,,,,,,,,,,,,,,,,,,,,,,581.0988732000114,582.1613569000037,580.5920143999392,582.1613569000037,582.1613569000037,582.1613569000037,0.005981100024655461,0.013147899997420609,35,reward,1,[0.5979560000123456],[0.5979598000412807],582.7655449999729,582.7655449999729,0.006943300017155707,0.006943300017155707,0.018158799968659878,0.05274189996998757,0.05974589998368174,0.10141940007451922,0.10833479999564588,1.0041042000520974,586.2584489999572,590.1749419999542,,,,,,,,,,,,,,,,,,,,,,,,,,,,,1,D,2023-12-05_08h30.18.539,gca_avoidance_task,2022.2.4,143.97189665949756,
positions.xlsx,stimuli.xlsx,stimuli/Social2.png,stimuli/Social1.png,stimuli/Nonsocial2.png,stimuli/Nonsocial1.png,,"(-0.7, -0.5)",cs_minus_s,,,,,0,0,0,0,,,,,0,13,13,5,,,,,,,,,,,,,,,,,,,,,,,,,,,,,,,,,,,,,,,,,,,,,,,,,,,,,,,,,,,,,,590.6817978000036,592.3762067999924,590.1749419999542,592.3762067999924,592.3762067999924,592.3762067999924,0.006790099898353219,0.013138199923560023,40,reward,1,[0.47942719992715865],[0.47943099995609373],592.8623297999147,592.8623297999147,0.006926600006408989,0.006926600006408989,0.018131599994376302,0.05281190003734082,0.05974609998520464,0.10139700002036989,0.10836559999734163,1.0041149000171572,596.3552886999678,600.007918599993,,,,,,,,,,,,,,,,,,,,,,,,,,,,,1,D,2023-12-05_08h30.18.539,gca_avoidance_task,2022.2.4,143.97189665949756,
positions.xlsx,stimuli.xlsx,stimuli/Social2.png,stimuli/Social1.png,stimuli/Nonsocial2.png,stimuli/Nonsocial1.png,,"(0.7, -0.5)",cs_plus_ns,,,,,0,0,0,0,,,,,0,14,14,11,,,,,,,,,,,,,,,,,,,,,,,,,,,,,,,,,,,,,,,,,,,,,,,,,,,,,,,,,,,,,,600.5147592999274,602.1674476999324,600.007918599993,602.1674476999324,602.1674476999324,602.1674476999324,0.007309200009331107,0.013348600012250245,40,shock,1,[2.514348499942571],[2.514352299971506],604.6881670999574,604.6881670999574,0.008804099983535707,0.008804099983535707,0.018546100007370114,0.05329169996548444,0.060272700036875904,0.10179630003403872,0.10879880003631115,1.0045727000106126,608.1811648999574,612.5212348999921,,,,,,,,,,,,,,,,,,,,,,,,,,,,,1,D,2023-12-05_08h30.18.539,gca_avoidance_task,2022.2.4,143.97189665949756,
positions.xlsx,stimuli.xlsx,stimuli/Social2.png,stimuli/Social1.png,stimuli/Nonsocial2.png,stimuli/Nonsocial1.png,,"(0.7, 0.5)",cs_plus_s,,,,,0,0,0,0,,,,,0,15,15,2,,,,,,,,,,,,,,,,,,,,,,,,,,,,,,,,,,,,,,,,,,,,,,,,,,,,,,,,,,,,,,613.0281624000054,614.500266399933,612.5212348999921,614.500266399933,614.500266399933,614.500266399933,0.006697700009681284,0.013148900005035102,40,shock,1,[0.3960154999513179],[0.39601919997949153],614.9030550000025,614.9030550000025,0.007607800071127713,0.007607800071127713,0.01829810009803623,0.05291570001281798,0.059887300012633204,0.1014952000696212,0.10855480004101992,1.0042069000191987,618.3960009999573,622.736082599964,,,,,,,,,,,,,,,,,,,,,,,,,,,,,1,D,2023-12-05_08h30.18.539,gca_avoidance_task,2022.2.4,143.97189665949756,
positions.xlsx,stimuli.xlsx,stimuli/Social2.png,stimuli/Social1.png,stimuli/Nonsocial2.png,stimuli/Nonsocial1.png,,"(0.7, -0.5)",cs_plus_s,,,,,0,0,0,0,,,,,1,0,16,3,,,,,,,,,,,,,,,,,,,,,,,,,,,,,,,,,,,,,,,,,,,,,,,,,,,,,,,,,,,,,,623.2429451999487,625.187318900018,622.736082599964,625.187318900018,625.187318900018,625.187318900018,0.00681839999742806,0.012860200018621981,40,none,0,,,630.2010045999195,630.2010045999195,0.0171585000352934,0.0171585000352934,0.026543700019828975,0.054239600081928074,0.06119670008774847,0.10289730003569275,0.10982140002306551,1.0125728000421077,633.6870484999381,637.5756946000038,,,,,,,,,,,,,,,,,,,,,,,,,,,,,1,D,2023-12-05_08h30.18.539,gca_avoidance_task,2022.2.4,143.97189665949756,
positions.xlsx,stimuli.xlsx,stimuli/Social2.png,stimuli/Social1.png,stimuli/Nonsocial2.png,stimuli/Nonsocial1.png,,"(-0.7, 0.5)",cs_minus_s,,,,,0,0,0,0,,,,,1,1,17,4,,,,,,,,,,,,,,,,,,,,,,,,,,,,,,,,,,,,,,,,,,,,,,,,,,,,,,,,,,,,,,638.0825831999537,639.7769399000099,637.5756946000038,639.7769399000099,639.7769399000099,639.7769399000099,0.0063689000671729445,0.012628299999050796,45,reward,1,[0.18008660001214594],[0.18009030004031956],639.9644529999932,639.9644529999932,0.007364399963989854,0.007364399963989854,0.018667600001208484,0.05337380000855774,0.06028009997680783,0.10193130001425743,0.10886299994308501,1.0046822000294924,643.4574800999835,647.1238939999603,,,,,,,,,,,,,,,,,,,,,,,,,,,,,1,D,2023-12-05_08h30.18.539,gca_avoidance_task,2022.2.4,143.97189665949756,
positions.xlsx,stimuli.xlsx,stimuli/Social2.png,stimuli/Social1.png,stimuli/Nonsocial2.png,stimuli/Nonsocial1.png,,"(0.7, -0.5)",cs_minus_ns,,,,,0,0,0,0,,,,,1,2,18,15,,,,,,,,,,,,,,,,,,,,,,,,,,,,,,,,,,,,,,,,,,,,,,,,,,,,,,,,,,,,,,647.6307917999802,648.707168999943,647.1238939999603,648.707168999943,648.707168999943,648.707168999943,0.0066408999264240265,0.013118400005623698,50,reward,1,[1.6182006999151781],[1.6250497999135405],650.3389931999845,650.3389931999845,0.008432099944911897,0.008432099944911897,0.018354499945417047,0.05313729995395988,0.0600669999839738,0.1016863000113517,0.10861859994474798,1.004419200005941,653.8319600999821,658.2484492999502,,,,,,,,,,,,,,,,,,,,,,,,,,,,,1,D,2023-12-05_08h30.18.539,gca_avoidance_task,2022.2.4,143.97189665949756,
positions.xlsx,stimuli.xlsx,stimuli/Social2.png,stimuli/Social1.png,stimuli/Nonsocial2.png,stimuli/Nonsocial1.png,,"(0.7, -0.5)",cs_minus_s,,,,,0,0,0,0,,,,,1,3,19,7,,,,,,,,,,,,,,,,,,,,,,,,,,,,,,,,,,,,,,,,,,,,,,,,,,,,,,,,,,,,,,658.7553465999663,659.9566849999828,658.2484492999502,659.9566849999828,659.9566849999828,659.9566849999828,0.006825799937359989,0.013353399932384491,55,reward,1,[0.8821263000136241],[0.889189500012435],660.8524254999356,660.8524254999356,0.007880500052124262,0.007880500052124262,0.01841790007892996,0.05317020008806139,0.06011339998804033,0.10173970006871969,0.10876490001101047,1.004492299980484,664.3454441999784,667.9494471999351,,,,,,,,,,,,,,,,,,,,,,,,,,,,,1,D,2023-12-05_08h30.18.539,gca_avoidance_task,2022.2.4,143.97189665949756,
positions.xlsx,stimuli.xlsx,stimuli/Social2.png,stimuli/Social1.png,stimuli/Nonsocial2.png,stimuli/Nonsocial1.png,,"(0.7, 0.5)",cs_plus_s,,,,,0,0,0,0,,,,,1,4,20,2,,,,,,,,,,,,,,,,,,,,,,,,,,,,,,,,,,,,,,,,,,,,,,,,,,,,,,,,,,,,,,668.4563413999276,670.2548449999886,667.9494471999351,670.2548449999886,670.2548449999886,670.2548449999886,0.0065633999183773994,0.013243299908936024,55,none,0,,,675.261567599955,675.261567599955,0.01335959997959435,0.01335959997959435,0.019973799935542047,0.05463599995709956,0.061592599959112704,0.10325029992964119,0.11025029991287738,1.0129496000008658,678.7545822999673,682.9973971999716,,,,,,,,,,,,,,,,,,,,,,,,,,,,,1,D,2023-12-05_08h30.18.539,gca_avoidance_task,2022.2.4,143.97189665949756,
positions.xlsx,stimuli.xlsx,stimuli/Social2.png,stimuli/Social1.png,stimuli/Nonsocial2.png,stimuli/Nonsocial1.png,,"(-0.7, -0.5)",cs_plus_ns,,,,,0,0,0,0,,,,,1,5,21,9,,,,,,,,,,,,,,,,,,,,,,,,,,,,,,,,,,,,,,,,,,,,,,,,,,,,,,,,,,,,,,683.5042809000006,685.497275199974,682.9973971999716,685.497275199974,685.497275199974,685.497275199974,0.006571999983862042,0.013096999959088862,55,shock,1,[0.8541831000475213],[0.8541864999569952],686.3583304999629,686.3583304999629,0.008020599954761565,0.008020599954761565,0.018495299969799817,0.05321070004720241,0.06018579995725304,0.10184380004648119,0.10872620006557554,1.0045270000118762,689.8512527999701,694.1705324000213,,,,,,,,,,,,,,,,,,,,,,,,,,,,,1,D,2023-12-05_08h30.18.539,gca_avoidance_task,2022.2.4,143.97189665949756,
positions.xlsx,stimuli.xlsx,stimuli/Social2.png,stimuli/Social1.png,stimuli/Nonsocial2.png,stimuli/Nonsocial1.png,,"(-0.7, -0.5)",cs_plus_s,,,,,0,0,0,0,,,,,1,6,22,1,,,,,,,,,,,,,,,,,,,,,,,,,,,,,,,,,,,,,,,,,,,,,,,,,,,,,,,,,,,,,,694.6774271000177,695.8857003999874,694.1705324000213,695.8857003999874,695.8857003999874,695.8857003999874,0.005929599981755018,0.013442400027997792,55,none,0,,,700.8924684999511,700.8924684999511,0.013694900088012218,0.013694900088012218,0.020216200035065413,0.05488579999655485,0.061887299991212785,0.10350199998356402,0.11045160004869103,1.0131808000151068,704.3853796999902,708.4963179000188,,,,,,,,,,,,,,,,,,,,,,,,,,,,,1,D,2023-12-05_08h30.18.539,gca_avoidance_task,2022.2.4,143.97189665949756,
positions.xlsx,stimuli.xlsx,stimuli/Social2.png,stimuli/Social1.png,stimuli/Nonsocial2.png,stimuli/Nonsocial1.png,,"(-0.7, 0.5)",cs_plus_s,,,,,0,0,0,0,,,,,1,7,23,0,,,,,,,,,,,,,,,,,,,,,,,,,,,,,,,,,,,,,,,,,,,,,,,,,,,,,,,,,,,,,,709.0032312999247,710.5864820999559,708.4963179000188,710.5864820999559,710.5864820999559,710.5864820999559,0.0067489000502973795,0.012945800088346004,55,none,0,,,715.5932217999361,715.5932217999361,0.013265700079500675,0.013265700079500675,0.019722099998034537,0.0543525000102818,0.061336099985055625,0.10298760002478957,0.109938699984923,1.01270459999796,719.086191499955,722.6762170000002,,,,,,,,,,,,,,,,,,,,,,,,,,,,,1,D,2023-12-05_08h30.18.539,gca_avoidance_task,2022.2.4,143.97189665949756,
positions.xlsx,stimuli.xlsx,stimuli/Social2.png,stimuli/Social1.png,stimuli/Nonsocial2.png,stimuli/Nonsocial1.png,,"(-0.7, -0.5)",cs_minus_ns,,,,,0,0,0,0,,,,,1,8,24,13,,,,,,,,,,,,,,,,,,,,,,,,,,,,,,,,,,,,,,,,,,,,,,,,,,,,,,,,,,,,,,723.1831734000007,724.7942050999263,722.6762170000002,724.7942050999263,724.7942050999263,724.7942050999263,0.006583699956536293,0.013219799962826073,60,reward,1,[0.5209297999972478],[0.5209335999097675],725.3219780999934,725.3219780999934,0.007772000040858984,0.007772000040858984,0.01872439996805042,0.05337350000627339,0.060306499944999814,0.1019906000001356,0.10893260000739247,1.0048096999526024,728.8148771999404,732.6619748999365,,,,,,,,,,,,,,,,,,,,,,,,,,,,,1,D,2023-12-05_08h30.18.539,gca_avoidance_task,2022.2.4,143.97189665949756,
positions.xlsx,stimuli.xlsx,stimuli/Social2.png,stimuli/Social1.png,stimuli/Nonsocial2.png,stimuli/Nonsocial1.png,,"(0.7, -0.5)",cs_plus_ns,,,,,0,0,0,0,,,,,1,9,25,11,,,,,,,,,,,,,,,,,,,,,,,,,,,,,,,,,,,,,,,,,,,,,,,,,,,,,,,,,,,,,,733.1688503000187,734.7243853999535,732.6619748999365,734.7243853999535,734.7243853999535,734.7243853999535,0.007893100031651556,0.019563800073228776,60,none,0,,,739.7241435999749,739.7241435999749,0.013409300008788705,0.013409300008788705,0.019285000045783818,0.053946300060488284,0.06090829998720437,0.10255230008624494,0.10951370000839233,1.0122698000632226,743.2171129999915,746.9530298999744,,,,,,,,,,,,,,,,,,,,,,,,,,,,,1,D,2023-12-05_08h30.18.539,gca_avoidance_task,2022.2.4,143.97189665949756,
positions.xlsx,stimuli.xlsx,stimuli/Social2.png,stimuli/Social1.png,stimuli/Nonsocial2.png,stimuli/Nonsocial1.png,,"(0.7, 0.5)",cs_minus_s,,,,,0,0,0,0,,,,,1,10,26,6,,,,,,,,,,,,,,,,,,,,,,,,,,,,,,,,,,,,,,,,,,,,,,,,,,,,,,,,,,,,,,747.4599029999226,749.0015105999773,746.9530298999744,749.0015105999773,749.0015105999773,749.0015105999773,0.005939400056377053,0.013139400049112737,65,reward,1,[0.458341300021857],[0.4583449000492692],749.4667810000246,749.4667810000246,0.007062399992719293,0.007062399992719293,0.018568299943581223,0.053236500010825694,0.06020609999541193,0.10185610002372414,0.10877019993495196,1.0045925999293104,752.9596944999648,757.0012228999985,,,,,,,,,,,,,,,,,,,,,,,,,,,,,1,D,2023-12-05_08h30.18.539,gca_avoidance_task,2022.2.4,143.97189665949756,
positions.xlsx,stimuli.xlsx,stimuli/Social2.png,stimuli/Social1.png,stimuli/Nonsocial2.png,stimuli/Nonsocial1.png,,"(0.7, 0.5)",cs_plus_ns,,,,,0,0,0,0,,,,,1,11,27,10,,,,,,,,,,,,,,,,,,,,,,,,,,,,,,,,,,,,,,,,,,,,,,,,,,,,,,,,,,,,,,757.5080931999255,759.1885967999697,757.0012228999985,759.1885967999697,759.1885967999697,759.1885967999697,0.006459000054746866,0.012978299986571074,65,shock,1,[0.5970941999694332],[0.597097699996084],759.7927310999949,759.7927310999949,0.007624899968504906,0.007624899968504906,0.018504800042137504,0.053108999971300364,0.06007190002128482,0.10172160004731268,0.10868279996793717,1.0044755999697372,763.2857290999964,767.6396194000263,,,,,,,,,,,,,,,,,,,,,,,,,,,,,1,D,2023-12-05_08h30.18.539,gca_avoidance_task,2022.2.4,143.97189665949756,
positions.xlsx,stimuli.xlsx,stimuli/Social2.png,stimuli/Social1.png,stimuli/Nonsocial2.png,stimuli/Nonsocial1.png,,"(-0.7, 0.5)",cs_plus_ns,,,,,0,0,0,0,,,,,1,12,28,8,,,,,,,,,,,,,,,,,,,,,,,,,,,,,,,,,,,,,,,,,,,,,,,,,,,,,,,,,,,,,,768.1465247999877,769.4520540999947,767.6396194000263,769.4520540999947,769.4520540999947,769.4520540999947,0.006435199989937246,0.013254699995741248,65,none,0,,,774.4587360000005,774.4587360000005,0.013437699992209673,0.013437699992209673,0.01998089998960495,0.054636600078083575,0.061589600052684546,0.10343490005470812,0.11027679999824613,1.0129273000638932,777.9517678000266,781.8473813999444,,,,,,,,,,,,,,,,,,,,,,,,,,,,,1,D,2023-12-05_08h30.18.539,gca_avoidance_task,2022.2.4,143.97189665949756,
positions.xlsx,stimuli.xlsx,stimuli/Social2.png,stimuli/Social1.png,stimuli/Nonsocial2.png,stimuli/Nonsocial1.png,,"(-0.7, 0.5)",cs_minus_ns,,,,,0,0,0,0,,,,,1,13,29,12,,,,,,,,,,,,,,,,,,,,,,,,,,,,,,,,,,,,,,,,,,,,,,,,,,,,,,,,,,,,,,782.3543369999388,783.76389870001,781.8473813999444,783.76389870001,783.76389870001,783.76389870001,0.007452599937096238,0.012943199952133,70,reward,1,[0.62516999989748],[0.6251736999256536],784.4027908999706,784.4027908999706,0.008743199985474348,0.008743199985474348,0.025223099975846708,0.05290979996789247,0.05985670001246035,0.10150650003924966,0.10848060005810112,1.0043116000015289,787.8888517000014,791.833104499965,,,,,,,,,,,,,,,,,,,,,,,,,,,,,1,D,2023-12-05_08h30.18.539,gca_avoidance_task,2022.2.4,143.97189665949756,
positions.xlsx,stimuli.xlsx,stimuli/Social2.png,stimuli/Social1.png,stimuli/Nonsocial2.png,stimuli/Nonsocial1.png,,"(0.7, 0.5)",cs_minus_ns,,,,,0,0,0,0,,,,,1,14,30,14,,,,,,,,,,,,,,,,,,,,,,,,,,,,,,,,,,,,,,,,,,,,,,,,,,,,,,,,,,,,,,792.33996319992,793.5968533999985,791.833104499965,793.5968533999985,793.5968533999985,793.5968533999985,0.007635099929757416,0.013127999962307513,75,reward,1,[0.6807991999667138],[0.680802799994126],794.2843612999422,794.2843612999422,0.008224999997764826,0.008224999997764826,0.01798520004376769,0.052618400077335536,0.05963310005608946,0.10123450006358325,0.10819689999334514,1.003993000020273,797.7772664999356,801.5062319999561,,,,,,,,,,,,,,,,,,,,,,,,,,,,,1,D,2023-12-05_08h30.18.539,gca_avoidance_task,2022.2.4,143.97189665949756,
positions.xlsx,stimuli.xlsx,stimuli/Social2.png,stimuli/Social1.png,stimuli/Nonsocial2.png,stimuli/Nonsocial1.png,,"(-0.7, -0.5)",cs_minus_s,,,,,0,0,0,0,,,,,1,15,31,5,,,,,,,,,,,,,,,,,,,,,,,,,,,,,,,,,,,,,,,,,,,,,,,,,,,,,,,,,,,,,,802.0131198000163,803.395036199945,801.5062319999561,803.395036199945,803.395036199945,803.395036199945,0.006415499956347048,0.01258179999422282,80,reward,1,[0.48568299994803965],[0.48568639997392893],803.8880872000009,803.8880872000009,0.007835100055672228,0.007835100055672228,0.01851130009163171,0.053144500008784235,0.06007480004336685,0.10174680000636727,0.10872060002293438,1.0044619000982493,807.3810259000165,810.8322386000073,,,,,,,,,,,,,,,,,,,,,,,,,,,,,1,D,2023-12-05_08h30.18.539,gca_avoidance_task,2022.2.4,143.97189665949756,
positions.xlsx,stimuli.xlsx,stimuli/Social2.png,stimuli/Social1.png,stimuli/Nonsocial2.png,stimuli/Nonsocial1.png,,"(-0.7, 0.5)",cs_minus_ns,,,,,0,0,0,0,,,,,,,,,0,0,0,12,,,,,,,,,,,,,,,,,,,,,,,,,,,,,,,,,,,,,,,,,,,,,,,,,,,,,,,,,,824.1649890999543,825.2344076000154,823.665045499918,825.2344076000154,825.2344076000154,825.2344076000154,0.006645199959166348,0.013415199937298894,85,reward,1,[0.5143962999572977],[0.5143995999824256],825.7551953999791,825.7551953999791,0.010014900006353855,0.010014900006353855,0.01802069996483624,0.05274389998521656,0.05971190007403493,0.10131679999176413,0.10827009996864945,1.0041090999729931,829.2481681000208,833.581327999942,810.8322386000073,810.8322386000073,810.8322386000073,810.8322386000073,space,10.650562700000592,,,,,,,,,,,,,,,,,,,,,,,1,D,2023-12-05_08h30.18.539,gca_avoidance_task,2022.2.4,143.97189665949756,
positions.xlsx,stimuli.xlsx,stimuli/Social2.png,stimuli/Social1.png,stimuli/Nonsocial2.png,stimuli/Nonsocial1.png,,"(0.7, 0.5)",cs_plus_s,,,,,0,0,0,0,,,,,,,,,0,1,1,2,,,,,,,,,,,,,,,,,,,,,,,,,,,,,,,,,,,,,,,,,,,,,,,,,,,,,,,,,,834.0882204999216,835.3867141000228,833.581327999942,835.3867141000228,835.3867141000228,835.3867141000228,0.0057474999921396375,0.01312260003760457,85,none,0,,,840.3935183000285,840.3935183000285,0.013970599975436926,0.013970599975436926,0.019913300056941807,0.05454080004710704,0.061491700005717576,0.10312980005983263,0.1100942000048235,1.0128421999979764,843.8863966999343,847.5112845000112,,,,,,,,,,,,,,,,,,,,,,,,,,,,,1,D,2023-12-05_08h30.18.539,gca_avoidance_task,2022.2.4,143.97189665949756,
positions.xlsx,stimuli.xlsx,stimuli/Social2.png,stimuli/Social1.png,stimuli/Nonsocial2.png,stimuli/Nonsocial1.png,,"(0.7, 0.5)",cs_minus_ns,,,,,0,0,0,0,,,,,,,,,0,2,2,14,,,,,,,,,,,,,,,,,,,,,,,,,,,,,,,,,,,,,,,,,,,,,,,,,,,,,,,,,,848.0181533999275,849.8514022999443,847.5112845000112,849.8514022999443,849.8514022999443,849.8514022999443,0.00653519993647933,0.013453499996103346,90,reward,1,[0.5838633999228477],[0.5838664999464527],850.4416690999642,850.4416690999642,0.008300999994389713,0.008300999994389713,0.018662699963897467,0.053298299899324775,0.06025949993636459,0.10190749994944781,0.10891439998522401,1.0046566999517381,853.9346108000027,858.0872534000082,,,,,,,,,,,,,,,,,,,,,,,,,,,,,1,D,2023-12-05_08h30.18.539,gca_avoidance_task,2022.2.4,143.97189665949756,
positions.xlsx,stimuli.xlsx,stimuli/Social2.png,stimuli/Social1.png,stimuli/Nonsocial2.png,stimuli/Nonsocial1.png,,"(-0.7, 0.5)",cs_minus_s,,,,,0,0,0,0,,,,,,,,,0,3,3,4,,,,,,,,,,,,,,,,,,,,,,,,,,,,,,,,,,,,,,,,,,,,,,,,,,,,,,,,,,858.5941077999305,860.5801148000173,858.0872534000082,860.5801148000173,860.5801148000173,860.5801148000173,0.006477299961261451,0.013144599972292781,95,reward,1,[0.4307164999190718],[0.43072009994648397],861.0176541999681,861.0176541999681,0.007418000022880733,0.007418000022880733,0.018177399993874133,0.0528381000040099,0.05978020001202822,0.10145079996436834,0.10842850001063198,1.00413789995946,864.5105898999609,868.7395557999844,,,,,,,,,,,,,,,,,,,,,,,,,,,,,1,D,2023-12-05_08h30.18.539,gca_avoidance_task,2022.2.4,143.97189665949756,
positions.xlsx,stimuli.xlsx,stimuli/Social2.png,stimuli/Social1.png,stimuli/Nonsocial2.png,stimuli/Nonsocial1.png,,"(-0.7, 0.5)",cs_plus_ns,,,,,0,0,0,0,,,,,,,,,0,4,4,8,,,,,,,,,,,,,,,,,,,,,,,,,,,,,,,,,,,,,,,,,,,,,,,,,,,,,,,,,,869.246415099944,870.5589255000232,868.7395557999844,870.5589255000232,870.5589255000232,870.5589255000232,0.0063223999459296465,0.013372199959121644,95,shock,1,[0.493279300048016],[0.49328289995901287],871.0588651999133,871.0588651999133,0.007634200039319694,0.007634200039319694,0.018887300044298172,0.053516600048169494,0.060466299997642636,0.10216000000946224,0.10913940006867051,1.004885100061074,874.55182589998,878.1419185999548,,,,,,,,,,,,,,,,,,,,,,,,,,,,,1,D,2023-12-05_08h30.18.539,gca_avoidance_task,2022.2.4,143.97189665949756,
positions.xlsx,stimuli.xlsx,stimuli/Social2.png,stimuli/Social1.png,stimuli/Nonsocial2.png,stimuli/Nonsocial1.png,,"(-0.7, 0.5)",cs_plus_s,,,,,0,0,0,0,,,,,,,,,0,5,5,0,,,,,,,,,,,,,,,,,,,,,,,,,,,,,,,,,,,,,,,,,,,,,,,,,,,,,,,,,,878.6487890999997,880.07933889993,878.1419185999548,880.07933889993,880.07933889993,880.07933889993,0.006767599959857762,0.01316989993210882,95,none,0,,,885.086048200028,885.086048200028,0.01419519993942231,0.01419519993942231,0.019864600035361946,0.054514999967068434,0.06144389999099076,0.10313900001347065,0.11007960001006722,1.0127641999861225,888.5789732999401,892.8843599000247,,,,,,,,,,,,,,,,,,,,,,,,,,,,,1,D,2023-12-05_08h30.18.539,gca_avoidance_task,2022.2.4,143.97189665949756,
positions.xlsx,stimuli.xlsx,stimuli/Social2.png,stimuli/Social1.png,stimuli/Nonsocial2.png,stimuli/Nonsocial1.png,,"(-0.7, -0.5)",cs_plus_ns,,,,,0,0,0,0,,,,,,,,,0,6,6,9,,,,,,,,,,,,,,,,,,,,,,,,,,,,,,,,,,,,,,,,,,,,,,,,,,,,,,,,,,893.3912272999296,895.0231201000279,892.8843599000247,895.0231201000279,895.0231201000279,895.0231201000279,0.006744100013747811,0.013179700006730855,95,shock,1,[0.6735590000171214],[0.6735628000460565],895.7036365999375,895.7036365999375,0.007627099985256791,0.007627099985256791,0.018632300081662834,0.0533168000401929,0.06028480001259595,0.10190160002093762,0.10884440003428608,1.0046523000346497,899.1965717999265,902.9811428999528,,,,,,,,,,,,,,,,,,,,,,,,,,,,,1,D,2023-12-05_08h30.18.539,gca_avoidance_task,2022.2.4,143.97189665949756,
positions.xlsx,stimuli.xlsx,stimuli/Social2.png,stimuli/Social1.png,stimuli/Nonsocial2.png,stimuli/Nonsocial1.png,,"(0.7, -0.5)",cs_plus_s,,,,,0,0,0,0,,,,,,,,,0,7,7,3,,,,,,,,,,,,,,,,,,,,,,,,,,,,,,,,,,,,,,,,,,,,,,,,,,,,,,,,,,903.4880163000198,904.7935004999163,902.9811428999528,904.7935004999163,904.7935004999163,904.7935004999163,0.005969700054265559,0.013048400054685771,95,none,0,,,909.8002608999377,909.8002608999377,0.013419400085695088,0.013419400085695088,0.01984770002309233,0.05447920004371554,0.06143920007161796,0.10316330008208752,0.11006660002749413,1.0128248000983149,913.2932454999536,917.0361164999194,,,,,,,,,,,,,,,,,,,,,,,,,,,,,1,D,2023-12-05_08h30.18.539,gca_avoidance_task,2022.2.4,143.97189665949756,
positions.xlsx,stimuli.xlsx,stimuli/Social2.png,stimuli/Social1.png,stimuli/Nonsocial2.png,stimuli/Nonsocial1.png,,"(-0.7, -0.5)",cs_plus_s,,,,,0,0,0,0,,,,,,,,,0,8,8,1,,,,,,,,,,,,,,,,,,,,,,,,,,,,,,,,,,,,,,,,,,,,,,,,,,,,,,,,,,917.5429863999598,919.2929179000203,917.0361164999194,919.2929179000203,919.2929179000203,919.2929179000203,0.005746099981479347,0.013210700009949505,95,none,0,,,924.2996350999456,924.2996350999456,0.013503900030627847,0.013503900030627847,0.019950099987909198,0.054675100021995604,0.06157849996816367,0.10321870003826916,0.11017300002276897,1.0129266999429092,927.7926067999797,932.0424007999245,,,,,,,,,,,,,,,,,,,,,,,,,,,,,1,D,2023-12-05_08h30.18.539,gca_avoidance_task,2022.2.4,143.97189665949756,
positions.xlsx,stimuli.xlsx,stimuli/Social2.png,stimuli/Social1.png,stimuli/Nonsocial2.png,stimuli/Nonsocial1.png,,"(0.7, -0.5)",cs_minus_ns,,,,,0,0,0,0,,,,,,,,,0,9,9,15,,,,,,,,,,,,,,,,,,,,,,,,,,,,,,,,,,,,,,,,,,,,,,,,,,,,,,,,,,932.5492523999419,934.4936185999541,932.0424007999245,934.4936185999541,934.4936185999541,934.4936185999541,0.006914099911227822,0.013390099979005754,100,reward,1,[0.639248099992983],[0.6392518000211567],935.139447900001,935.139447900001,0.007771900040097535,0.007771900040097535,0.018491100054234266,0.05316859995946288,0.0601054000435397,0.1017730999737978,0.10875360004138201,1.0045231999829412,938.6323980999878,942.2919748999411,,,,,,,,,,,,,,,,,,,,,,,,,,,,,1,D,2023-12-05_08h30.18.539,gca_avoidance_task,2022.2.4,143.97189665949756,
positions.xlsx,stimuli.xlsx,stimuli/Social2.png,stimuli/Social1.png,stimuli/Nonsocial2.png,stimuli/Nonsocial1.png,,"(-0.7, -0.5)",cs_minus_ns,,,,,0,0,0,0,,,,,,,,,0,10,10,13,,,,,,,,,,,,,,,,,,,,,,,,,,,,,,,,,,,,,,,,,,,,,,,,,,,,,,,,,,942.798870199942,944.2918517999351,942.2919748999411,944.2918517999351,944.2918517999351,944.2918517999351,0.006172700086608529,0.013143300078809261,105,reward,1,[0.5558466000948101],[0.5558503000065684],944.8542969999835,944.8542969999835,0.008215300040319562,0.008215300040319562,0.01815699995495379,0.052876400062814355,0.05979410000145435,0.10149110003840178,0.1084687999682501,1.0042058000108227,948.3472417999292,952.0138206999982,,,,,,,,,,,,,,,,,,,,,,,,,,,,,1,D,2023-12-05_08h30.18.539,gca_avoidance_task,2022.2.4,143.97189665949756,
positions.xlsx,stimuli.xlsx,stimuli/Social2.png,stimuli/Social1.png,stimuli/Nonsocial2.png,stimuli/Nonsocial1.png,,"(0.7, -0.5)",cs_plus_ns,,,,,0,0,0,0,,,,,,,,,0,11,11,11,,,,,,,,,,,,,,,,,,,,,,,,,,,,,,,,,,,,,,,,,,,,,,,,,,,,,,,,,,952.5206639999524,954.0761902999366,952.0138206999982,954.0761902999366,954.0761902999366,954.0761902999366,0.00693550007417798,0.013149400008842349,105,none,0,,,959.0829011999303,959.0829011999303,0.01361610007006675,0.01361610007006675,0.019825000083073974,0.054513800074346364,0.06143980007618666,0.10307960002683103,0.11007280007470399,1.0127713000401855,962.5758625000017,967.0548280000221,,,,,,,,,,,,,,,,,,,,,,,,,,,,,1,D,2023-12-05_08h30.18.539,gca_avoidance_task,2022.2.4,143.97189665949756,
positions.xlsx,stimuli.xlsx,stimuli/Social2.png,stimuli/Social1.png,stimuli/Nonsocial2.png,stimuli/Nonsocial1.png,,"(0.7, -0.5)",cs_minus_s,,,,,0,0,0,0,,,,,,,,,0,12,12,7,,,,,,,,,,,,,,,,,,,,,,,,,,,,,,,,,,,,,,,,,,,,,,,,,,,,,,,,,,967.5616904000053,968.6797079999233,967.0548280000221,968.6797079999233,968.6797079999233,968.6797079999233,0.006371099967509508,0.013355599949136376,110,reward,1,[0.6530359999742359],[0.6530398998875171],969.3394012999488,969.3394012999488,0.007750699995085597,0.007750699995085597,0.018514900002628565,0.05321459996048361,0.06017810001503676,0.10180960001889616,0.1087794000050053,1.0046113999560475,972.8323953999206,976.471076900023,,,,,,,,,,,,,,,,,,,,,,,,,,,,,1,D,2023-12-05_08h30.18.539,gca_avoidance_task,2022.2.4,143.97189665949756,
positions.xlsx,stimuli.xlsx,stimuli/Social2.png,stimuli/Social1.png,stimuli/Nonsocial2.png,stimuli/Nonsocial1.png,,"(0.7, 0.5)",cs_minus_s,,,,,0,0,0,0,,,,,,,,,0,13,13,6,,,,,,,,,,,,,,,,,,,,,,,,,,,,,,,,,,,,,,,,,,,,,,,,,,,,,,,,,,976.977926600026,978.2487409999594,976.471076900023,978.2487409999594,978.2487409999594,978.2487409999594,0.005750900018028915,0.013262400054372847,115,reward,1,[0.5836095999693498],[0.5836132999975234],978.8390080999816,978.8390080999816,0.0071922000497579575,0.0071922000497579575,0.0185365000506863,0.05316890007816255,0.06014190008863807,0.10176990006584674,0.1087044000159949,1.0045042000710964,982.3319750999799,986.7137002999661,,,,,,,,,,,,,,,,,,,,,,,,,,,,,1,D,2023-12-05_08h30.18.539,gca_avoidance_task,2022.2.4,143.97189665949756,
positions.xlsx,stimuli.xlsx,stimuli/Social2.png,stimuli/Social1.png,stimuli/Nonsocial2.png,stimuli/Nonsocial1.png,,"(0.7, 0.5)",cs_plus_ns,,,,,0,0,0,0,,,,,,,,,0,14,14,10,,,,,,,,,,,,,,,,,,,,,,,,,,,,,,,,,,,,,,,,,,,,,,,,,,,,,,,,,,987.2205807999708,988.8802630999126,986.7137002999661,988.8802630999126,988.8802630999126,988.8802630999126,0.007064100005663931,0.013134000007994473,115,none,0,,,993.8939052999485,993.8939052999485,0.014544500038027763,0.014544500038027763,0.026826299959793687,0.05451749998610467,0.061501899966970086,0.103132399963215,0.1101185999577865,1.0128412999911234,997.3799204999814,1000.9561669999966,,,,,,,,,,,,,,,,,,,,,,,,,,,,,1,D,2023-12-05_08h30.18.539,gca_avoidance_task,2022.2.4,143.97189665949756,
positions.xlsx,stimuli.xlsx,stimuli/Social2.png,stimuli/Social1.png,stimuli/Nonsocial2.png,stimuli/Nonsocial1.png,,"(-0.7, -0.5)",cs_minus_s,,,,,0,0,0,0,,,,,,,,,0,15,15,5,,,,,,,,,,,,,,,,,,,,,,,,,,,,,,,,,,,,,,,,,,,,,,,,,,,,,,,,,,1001.4630047000246,1002.8587840999244,1000.9561669999966,1002.8587840999244,1002.8587840999244,1002.8587840999244,0.0060804999666288495,0.013170999940484762,120,reward,1,[0.6320454999804497],[0.6320492000086233],1003.4976744999876,1003.4976744999876,0.006895700003951788,0.006895700003951788,0.018677000072784722,0.053369499975815415,0.060391100007109344,0.10190939996391535,0.1088968999683857,1.004719499964267,1006.9906296000117,1010.7265941000078,,,,,,,,,,,,,,,,,,,,,,,,,,,,,1,D,2023-12-05_08h30.18.539,gca_avoidance_task,2022.2.4,143.97189665949756,
positions.xlsx,stimuli.xlsx,stimuli/Social2.png,stimuli/Social1.png,stimuli/Nonsocial2.png,stimuli/Nonsocial1.png,,"(-0.7, -0.5)",cs_minus_s,,,,,0,0,0,0,,,,,,,,,1,0,16,5,,,,,,,,,,,,,,,,,,,,,,,,,,,,,,,,,,,,,,,,,,,,,,,,,,,,,,,,,,1011.2334506999468,1012.8653324999614,1010.7265941000078,1012.8653324999614,1012.8653324999614,1012.8653324999614,0.005744199967011809,0.01333310001064092,125,reward,1,[0.500337400007993],[0.5003408000338823],1013.3722748999717,1013.3722748999717,0.0065830000676214695,0.0065830000676214695,0.017916299984790385,0.052568000042811036,0.05949839996173978,0.10112450004089624,0.10806950007099658,1.0038299000589177,1016.8652049999218,1021.038607699913,,,,,,,,,,,,,,,,,,,,,,,,,,,,,1,D,2023-12-05_08h30.18.539,gca_avoidance_task,2022.2.4,143.97189665949756,
positions.xlsx,stimuli.xlsx,stimuli/Social2.png,stimuli/Social1.png,stimuli/Nonsocial2.png,stimuli/Nonsocial1.png,,"(0.7, -0.5)",cs_minus_ns,,,,,0,0,0,0,,,,,,,,,1,1,17,15,,,,,,,,,,,,,,,,,,,,,,,,,,,,,,,,,,,,,,,,,,,,,,,,,,,,,,,,,,1021.5455929000163,1022.663551799953,1021.038607699913,1022.663551799953,1022.663551799953,1022.663551799953,0.006544100004248321,0.013462500064633787,130,reward,1,[0.6810346000129357],[0.6810383000411093],1023.3510175999254,1023.3510175999254,0.007665500044822693,0.007665500044822693,0.0181942000053823,0.05287240003235638,0.05982239998411387,0.10152569995261729,0.10844959993846714,1.0042708000401035,1026.8439330999972,1030.6077051999746,,,,,,,,,,,,,,,,,,,,,,,,,,,,,1,D,2023-12-05_08h30.18.539,gca_avoidance_task,2022.2.4,143.97189665949756,
positions.xlsx,stimuli.xlsx,stimuli/Social2.png,stimuli/Social1.png,stimuli/Nonsocial2.png,stimuli/Nonsocial1.png,,"(0.7, 0.5)",cs_plus_ns,,,,,0,0,0,0,,,,,,,,,1,2,18,10,,,,,,,,,,,,,,,,,,,,,,,,,,,,,,,,,,,,,,,,,,,,,,,,,,,,,,,,,,1031.114531799918,1032.933922600001,1030.6077051999746,1032.933922600001,1032.933922600001,1032.933922600001,0.00651320000179112,0.01328399998601526,130,none,0,,,1037.9406844999176,1037.9406844999176,0.013999199960380793,0.013999199960380793,0.02009810006711632,0.054740300052799284,0.06168459996115416,0.10337739996612072,0.11032680002972484,1.013050000066869,1041.4336413999554,1045.676512499922,,,,,,,,,,,,,,,,,,,,,,,,,,,,,1,D,2023-12-05_08h30.18.539,gca_avoidance_task,2022.2.4,143.97189665949756,
positions.xlsx,stimuli.xlsx,stimuli/Social2.png,stimuli/Social1.png,stimuli/Nonsocial2.png,stimuli/Nonsocial1.png,,"(-0.7, -0.5)",cs_minus_ns,,,,,0,0,0,0,,,,,,,,,1,3,19,13,,,,,,,,,,,,,,,,,,,,,,,,,,,,,,,,,,,,,,,,,,,,,,,,,,,,,,,,,,1046.183364699944,1047.356949799927,1045.676512499922,1047.356949799927,1047.356949799927,1047.356949799927,0.007011099951341748,0.013164700008928776,135,reward,1,[0.7155428000260144],[0.7155464999377728],1048.0791566999396,1048.0791566999396,0.007875400013290346,0.007875400013290346,0.018545800005085766,0.053288099938072264,0.060166899929754436,0.10184849996585399,0.10881060000974685,1.0045200999593362,1051.572090099915,1055.9954660999356,,,,,,,,,,,,,,,,,,,,,,,,,,,,,1,D,2023-12-05_08h30.18.539,gca_avoidance_task,2022.2.4,143.97189665949756,
positions.xlsx,stimuli.xlsx,stimuli/Social2.png,stimuli/Social1.png,stimuli/Nonsocial2.png,stimuli/Nonsocial1.png,,"(-0.7, 0.5)",cs_minus_s,,,,,0,0,0,0,,,,,,,,,1,4,20,4,,,,,,,,,,,,,,,,,,,,,,,,,,,,,,,,,,,,,,,,,,,,,,,,,,,,,,,,,,1056.5023826999823,1057.6064969999716,1055.9954660999356,1057.6064969999716,1057.6064969999716,1057.6064969999716,0.006089600035920739,0.01293900003656745,140,reward,1,[0.5415179999545217],[0.5415216999826953],1058.1550599000184,1058.1550599000184,0.007324800011701882,0.007324800011701882,0.018484100000932813,0.05318250006530434,0.06011469999793917,0.10177030006889254,0.1087241000495851,1.004520200076513,1061.6480412000092,1066.0992353999754,,,,,,,,,,,,,,,,,,,,,,,,,,,,,1,D,2023-12-05_08h30.18.539,gca_avoidance_task,2022.2.4,143.97189665949756,
positions.xlsx,stimuli.xlsx,stimuli/Social2.png,stimuli/Social1.png,stimuli/Nonsocial2.png,stimuli/Nonsocial1.png,,"(-0.7, 0.5)",cs_plus_s,,,,,0,0,0,0,,,,,,,,,1,5,21,0,,,,,,,,,,,,,,,,,,,,,,,,,,,,,,,,,,,,,,,,,,,,,,,,,,,,,,,,,,1066.606081899954,1067.765763000003,1066.0992353999754,1067.765763000003,1067.765763000003,1067.765763000003,0.0059250000631436706,0.012920600012876093,140,none,0,,,1072.7725294999545,1072.7725294999545,0.013088700012303889,0.013088700012303889,0.01972149999346584,0.054337000008672476,0.06130990001838654,0.10303430003114045,0.10997390002012253,1.0126358000561595,1076.2655006999848,1080.209784799954,,,,,,,,,,,,,,,,,,,,,,,,,,,,,1,D,2023-12-05_08h30.18.539,gca_avoidance_task,2022.2.4,143.97189665949756,
positions.xlsx,stimuli.xlsx,stimuli/Social2.png,stimuli/Social1.png,stimuli/Nonsocial2.png,stimuli/Nonsocial1.png,,"(-0.7, -0.5)",cs_plus_ns,,,,,0,0,0,0,,,,,,,,,1,6,22,9,,,,,,,,,,,,,,,,,,,,,,,,,,,,,,,,,,,,,,,,,,,,,,,,,,,,,,,,,,1080.7166349999607,1082.0360166999744,1080.209784799954,1082.0360166999744,1082.0360166999744,1082.0360166999744,0.006213499931618571,0.012824399978853762,140,shock,1,[0.6178406999679282],[0.6178440999938175],1082.6610355000012,1082.6610355000012,0.007608899963088334,0.007608899963088334,0.018080599955283105,0.05267209990415722,0.05961649992968887,0.1013130999635905,0.10826329991687089,1.0040826998883858,1086.1539483999368,1089.757977399975,,,,,,,,,,,,,,,,,,,,,,,,,,,,,1,D,2023-12-05_08h30.18.539,gca_avoidance_task,2022.2.4,143.97189665949756,
positions.xlsx,stimuli.xlsx,stimuli/Social2.png,stimuli/Social1.png,stimuli/Nonsocial2.png,stimuli/Nonsocial1.png,,"(0.7, -0.5)",cs_plus_s,,,,,0,0,0,0,,,,,,,,,1,7,23,3,,,,,,,,,,,,,,,,,,,,,,,,,,,,,,,,,,,,,,,,,,,,,,,,,,,,,,,,,,1090.2648143999977,1091.674507400021,1089.757977399975,1091.674507400021,1091.674507400021,1091.674507400021,0.006432399968616664,0.013345899991691113,140,none,0,,,1096.681208099937,1096.681208099937,0.013203599955886602,0.013203599955886602,0.02004480001050979,0.05482880002819002,0.06178480002563447,0.1033875000430271,0.1103566000238061,1.0130062999669462,1100.1742170000216,1104.382342799916,,,,,,,,,,,,,,,,,,,,,,,,,,,,,1,D,2023-12-05_08h30.18.539,gca_avoidance_task,2022.2.4,143.97189665949756,
positions.xlsx,stimuli.xlsx,stimuli/Social2.png,stimuli/Social1.png,stimuli/Nonsocial2.png,stimuli/Nonsocial1.png,,"(-0.7, -0.5)",cs_plus_s,,,,,0,0,0,0,,,,,,,,,1,8,24,1,,,,,,,,,,,,,,,,,,,,,,,,,,,,,,,,,,,,,,,,,,,,,,,,,,,,,,,,,,1104.8892086999258,1106.3405938999495,1104.382342799916,1106.3405938999495,1106.3405938999495,1106.3405938999495,0.0068206998985260725,0.013498499989509583,140,none,0,,,1111.347284700023,1111.347284700023,0.0136944999685511,0.0136944999685511,0.020227300003170967,0.05488640000112355,0.061845699907280505,0.1034741000039503,0.11046769993845373,1.01324219990056,1114.8402012999868,1118.687303100014,,,,,,,,,,,,,,,,,,,,,,,,,,,,,1,D,2023-12-05_08h30.18.539,gca_avoidance_task,2022.2.4,143.97189665949756,
positions.xlsx,stimuli.xlsx,stimuli/Social2.png,stimuli/Social1.png,stimuli/Nonsocial2.png,stimuli/Nonsocial1.png,,"(0.7, -0.5)",cs_plus_ns,,,,,0,0,0,0,,,,,,,,,1,9,25,11,,,,,,,,,,,,,,,,,,,,,,,,,,,,,,,,,,,,,,,,,,,,,,,,,,,,,,,,,,1119.194197100005,1121.1385575999739,1118.687303100014,1121.1385575999739,1121.1385575999739,1121.1385575999739,0.006703499937430024,0.013232899946160614,140,shock,1,[0.19476879993453622],[0.1947723999619484],1121.3399212999502,1121.3399212999502,0.00806140003260225,0.00806140003260225,0.01832620007917285,0.05305350001435727,0.06001700006891042,0.10162420000415295,0.10862620000261813,1.0043500000610948,1124.8328451999696,1129.1382404000033,,,,,,,,,,,,,,,,,,,,,,,,,,,,,1,D,2023-12-05_08h30.18.539,gca_avoidance_task,2022.2.4,143.97189665949756,
positions.xlsx,stimuli.xlsx,stimuli/Social2.png,stimuli/Social1.png,stimuli/Nonsocial2.png,stimuli/Nonsocial1.png,,"(-0.7, 0.5)",cs_plus_ns,,,,,0,0,0,0,,,,,,,,,1,10,26,8,,,,,,,,,,,,,,,,,,,,,,,,,,,,,,,,,,,,,,,,,,,,,,,,,,,,,,,,,,1129.6451259999303,1131.2284096999792,1129.1382404000033,1131.2284096999792,1131.2284096999792,1131.2284096999792,0.006560000008903444,0.01303359994199127,140,none,0,,,1136.235141800018,1136.235141800018,0.014321999973617494,0.014321999973617494,0.01974349992815405,0.05442479997873306,0.0613941999617964,0.10304089996498078,0.11001850001048297,1.0127276999410242,1139.7280735999811,1143.3667727999855,,,,,,,,,,,,,,,,,,,,,,,,,,,,,1,D,2023-12-05_08h30.18.539,gca_avoidance_task,2022.2.4,143.97189665949756,
positions.xlsx,stimuli.xlsx,stimuli/Social2.png,stimuli/Social1.png,stimuli/Nonsocial2.png,stimuli/Nonsocial1.png,,"(0.7, 0.5)",cs_minus_s,,,,,0,0,0,0,,,,,,,,,1,11,27,6,,,,,,,,,,,,,,,,,,,,,,,,,,,,,,,,,,,,,,,,,,,,,,,,,,,,,,,,,,1143.866764999926,1145.4222328999313,1143.3667727999855,1145.4222328999313,1145.4222328999313,1145.4222328999313,0.006565899937413633,0.013003699947148561,145,reward,1,[0.6387923000147566],[0.638795799924992],1146.0680505000055,1146.0680505000055,0.007228100090287626,0.007228100090287626,0.01888009998947382,0.05352620000485331,0.060508100083097816,0.10210770007688552,0.10913170001003891,1.0048967000329867,1149.5610267999582,1153.6580334999599,,,,,,,,,,,,,,,,,,,,,,,,,,,,,1,D,2023-12-05_08h30.18.539,gca_avoidance_task,2022.2.4,143.97189665949756,
positions.xlsx,stimuli.xlsx,stimuli/Social2.png,stimuli/Social1.png,stimuli/Nonsocial2.png,stimuli/Nonsocial1.png,,"(0.7, -0.5)",cs_minus_s,,,,,0,0,0,0,,,,,,,,,1,12,28,7,,,,,,,,,,,,,,,,,,,,,,,,,,,,,,,,,,,,,,,,,,,,,,,,,,,,,,,,,,1154.1649881999474,1155.65790380002,1153.6580334999599,1155.65790380002,1155.65790380002,1155.65790380002,0.006580699933692813,0.013175399973988533,150,reward,1,[0.6182938000420108],[0.6182975999545306],1156.2829126999713,1156.2829126999713,0.006643400061875582,0.006643400061875582,0.018513699993491173,0.05320000008214265,0.06014409998897463,0.10175919998437166,0.10874479997437447,1.0045479000546038,1159.7758242000127,1163.5951493999455,,,,,,,,,,,,,,,,,,,,,,,,,,,,,1,D,2023-12-05_08h30.18.539,gca_avoidance_task,2022.2.4,143.97189665949756,
positions.xlsx,stimuli.xlsx,stimuli/Social2.png,stimuli/Social1.png,stimuli/Nonsocial2.png,stimuli/Nonsocial1.png,,"(0.7, 0.5)",cs_plus_s,,,,,0,0,0,0,,,,,,,,,1,13,29,2,,,,,,,,,,,,,,,,,,,,,,,,,,,,,,,,,,,,,,,,,,,,,,,,,,,,,,,,,,1164.101990199997,1165.393629899947,1163.5951493999455,1165.393629899947,1165.393629899947,1165.393629899947,0.006026600021868944,0.013313300092704594,150,none,0,,,1170.4003715999424,1170.4003715999424,0.013823800021782517,0.013823800021782517,0.020105800009332597,0.054741600062698126,0.061721300007775426,0.10335590003523976,0.11033250007312745,1.0130510000744835,1173.8933439999819,1177.7542580999434,,,,,,,,,,,,,,,,,,,,,,,,,,,,,1,D,2023-12-05_08h30.18.539,gca_avoidance_task,2022.2.4,143.97189665949756,
positions.xlsx,stimuli.xlsx,stimuli/Social2.png,stimuli/Social1.png,stimuli/Nonsocial2.png,stimuli/Nonsocial1.png,,"(0.7, 0.5)",cs_minus_ns,,,,,0,0,0,0,,,,,,,,,1,14,30,14,,,,,,,,,,,,,,,,,,,,,,,,,,,,,,,,,,,,,,,,,,,,,,,,,,,,,,,,,,1178.26114279998,1180.156914299936,1177.7542580999434,1180.156914299936,1180.156914299936,1180.156914299936,0.006639600032940507,0.013150200014933944,155,reward,1,[0.6460382000077516],[0.6460420000366867],1180.8096297999145,1180.8096297999145,0.007447500014677644,0.007447500014677644,0.018223399994894862,0.05291279999073595,0.05985670001246035,0.10155000002123415,0.10844750003889203,1.004265800002031,1184.3026002999395,1188.753767899936,,,,,,,,,,,,,,,,,,,,,,,,,,,,,1,D,2023-12-05_08h30.18.539,gca_avoidance_task,2022.2.4,143.97189665949756,
positions.xlsx,stimuli.xlsx,stimuli/Social2.png,stimuli/Social1.png,stimuli/Nonsocial2.png,stimuli/Nonsocial1.png,,"(-0.7, 0.5)",cs_minus_ns,,,,,0,0,0,0,,,,,,,,,1,15,31,12,,,,,,,,,,,,,,,,,,,,,,,,,,,,,,,,,,,,,,,,,,,,,,,,,,,,,,,,,,1189.2607025000034,1191.0106016999343,1188.753767899936,1191.0106016999343,1191.0106016999343,1191.0106016999343,0.006350999930873513,0.01315809995867312,160,reward,1,[0.6320230999263003],[0.6320265999529511],1191.649464200018,1191.649464200018,0.007828600006178021,0.007828600006178021,0.018725399975664914,0.05339440004900098,0.06034920003730804,0.10200660000555217,0.1089554000645876,1.00474560004659,1195.142438699957,1198.9964024999645,,,,,,,,,,,,,,,,,,,,,,,,,,,,,1,D,2023-12-05_08h30.18.539,gca_avoidance_task,2022.2.4,143.97189665949756,
positions.xlsx,stimuli.xlsx,stimuli/Social2.png,stimuli/Social1.png,stimuli/Nonsocial2.png,stimuli/Nonsocial1.png,,"(-0.7, -0.5)",cs_minus_s,,,,,0,0,0,0,,,,,,,,,2,0,32,5,,,,,,,,,,,,,,,,,,,,,,,,,,,,,,,,,,,,,,,,,,,,,,,,,,,,,,,,,,1199.503318300005,1201.169897899963,1198.9964024999645,1201.169897899963,1201.169897899963,1201.169897899963,0.005921400035731494,0.012896899948827922,165,reward,1,[0.624938299995847],[0.6249419000232592],1201.8018455000129,1201.8018455000129,0.007031100103631616,0.007031100103631616,0.018303000018931925,0.05299610004294664,0.05990460002794862,0.10154679999686778,0.10849630006123334,1.0043401001021266,1205.2947919999715,1209.162658700021,,,,,,,,,,,,,,,,,,,,,,,,,,,,,1,D,2023-12-05_08h30.18.539,gca_avoidance_task,2022.2.4,143.97189665949756,
positions.xlsx,stimuli.xlsx,stimuli/Social2.png,stimuli/Social1.png,stimuli/Nonsocial2.png,stimuli/Nonsocial1.png,,"(0.7, 0.5)",cs_plus_s,,,,,0,0,0,0,,,,,,,,,2,1,33,2,,,,,,,,,,,,,,,,,,,,,,,,,,,,,,,,,,,,,,,,,,,,,,,,,,,,,,,,,,1209.6695830000099,1211.0514061999274,1209.162658700021,1211.0514061999274,1211.0514061999274,1211.0514061999274,0.006309300079010427,0.013158100075088441,165,none,0,,,1216.0581662999466,1216.0581662999466,0.013994900044053793,0.013994900044053793,0.019950799993239343,0.054597700014710426,0.061549399979412556,0.1032431999919936,0.11019300005864352,1.0129968000110239,1219.5511143999174,1223.2592947999947,,,,,,,,,,,,,,,,,,,,,,,,,,,,,1,D,2023-12-05_08h30.18.539,gca_avoidance_task,2022.2.4,143.97189665949756,
positions.xlsx,stimuli.xlsx,stimuli/Social2.png,stimuli/Social1.png,stimuli/Nonsocial2.png,stimuli/Nonsocial1.png,,"(0.7, 0.5)",cs_minus_ns,,,,,0,0,0,0,,,,,,,,,2,2,34,14,,,,,,,,,,,,,,,,,,,,,,,,,,,,,,,,,,,,,,,,,,,,,,,,,,,,,,,,,,1223.7661334999138,1225.648028000025,1223.2592947999947,1225.648028000025,1225.648028000025,1225.648028000025,0.007187700015492737,0.013340099947527051,170,reward,1,[0.6255938999820501],[0.6255975000094622],1226.2799812000012,1226.2799812000012,0.008245499921031296,0.008245499921031296,0.017904700012877584,0.05257359996903688,0.059538799920119345,0.1012205999577418,0.10816229996271431,1.0039142000023276,1229.7728735000128,1233.9116270999657,,,,,,,,,,,,,,,,,,,,,,,,,,,,,1,D,2023-12-05_08h30.18.539,gca_avoidance_task,2022.2.4,143.97189665949756,
positions.xlsx,stimuli.xlsx,stimuli/Social2.png,stimuli/Social1.png,stimuli/Nonsocial2.png,stimuli/Nonsocial1.png,,"(-0.7, -0.5)",cs_minus_ns,,,,,0,0,0,0,,,,,,,,,2,3,35,13,,,,,,,,,,,,,,,,,,,,,,,,,,,,,,,,,,,,,,,,,,,,,,,,,,,,,,,,,,1234.418491599965,1236.1406651999569,1233.9116270999657,1236.1406651999569,1236.1406651999569,1236.1406651999569,0.006767699960619211,0.013120300020091236,175,reward,1,[0.6111044000135735],[0.6111079000402242],1236.7586825999897,1236.7586825999897,0.007932799984700978,0.007932799984700978,0.018635299988090992,0.0532670000102371,0.06023419997654855,0.1018544000107795,0.10881350003182888,1.004635600023903,1240.251645799959,1244.3695007999195,,,,,,,,,,,,,,,,,,,,,,,,,,,,,1,D,2023-12-05_08h30.18.539,gca_avoidance_task,2022.2.4,143.97189665949756,
positions.xlsx,stimuli.xlsx,stimuli/Social2.png,stimuli/Social1.png,stimuli/Nonsocial2.png,stimuli/Nonsocial1.png,,"(-0.7, -0.5)",cs_plus_ns,,,,,0,0,0,0,,,,,,,,,2,4,36,9,,,,,,,,,,,,,,,,,,,,,,,,,,,,,,,,,,,,,,,,,,,,,,,,,,,,,,,,,,1244.8763819999294,1246.8346545000095,1244.3695007999195,1246.8346545000095,1246.8346545000095,1246.8346545000095,0.006445299950428307,0.013134200009517372,175,none,0,,,1251.8413907999638,1251.8413907999638,0.013957499992102385,0.013957499992102385,0.019861200009472668,0.05459750001318753,0.061500399955548346,0.10314490005839616,0.11009039997588843,1.0128916000248864,1255.3343065999215,1259.00781989994,,,,,,,,,,,,,,,,,,,,,,,,,,,,,1,D,2023-12-05_08h30.18.539,gca_avoidance_task,2022.2.4,143.97189665949756,
positions.xlsx,stimuli.xlsx,stimuli/Social2.png,stimuli/Social1.png,stimuli/Nonsocial2.png,stimuli/Nonsocial1.png,,"(0.7, -0.5)",cs_plus_s,,,,,0,0,0,0,,,,,,,,,2,5,37,3,,,,,,,,,,,,,,,,,,,,,,,,,,,,,,,,,,,,,,,,,,,,,,,,,,,,,,,,,,1259.5146763999946,1260.6674233999802,1259.00781989994,1260.6674233999802,1260.6674233999802,1260.6674233999802,0.0059130999725311995,0.013145199976861477,175,none,0,,,1265.6741490999702,1265.6741490999702,0.013897299999371171,0.013897299999371171,0.01995430001989007,0.0545391000341624,0.061499199946410954,0.10316449997480959,0.11015690001659095,1.0128636000445113,1269.1671372000128,1273.4724574999418,,,,,,,,,,,,,,,,,,,,,,,,,,,,,1,D,2023-12-05_08h30.18.539,gca_avoidance_task,2022.2.4,143.97189665949756,
positions.xlsx,stimuli.xlsx,stimuli/Social2.png,stimuli/Social1.png,stimuli/Nonsocial2.png,stimuli/Nonsocial1.png,,"(-0.7, 0.5)",cs_plus_ns,,,,,0,0,0,0,,,,,,,,,2,6,38,8,,,,,,,,,,,,,,,,,,,,,,,,,,,,,,,,,,,,,,,,,,,,,,,,,,,,,,,,,,1273.9793440999929,1275.7709364999318,1273.4724574999418,1275.7709364999318,1275.7709364999318,1275.7709364999318,0.007303899968974292,0.012870499980635941,175,none,0,,,1280.7776800999418,1280.7776800999418,0.013241500011645257,0.013241500011645257,0.019627899979241192,0.05428869999013841,0.06132169999182224,0.10289999993983656,0.10984399996232241,1.012594599975273,1284.2706536999904,1287.791349099949,,,,,,,,,,,,,,,,,,,,,,,,,,,,,1,D,2023-12-05_08h30.18.539,gca_avoidance_task,2022.2.4,143.97189665949756,
positions.xlsx,stimuli.xlsx,stimuli/Social2.png,stimuli/Social1.png,stimuli/Nonsocial2.png,stimuli/Nonsocial1.png,,"(0.7, -0.5)",cs_minus_s,,,,,0,0,0,0,,,,,,,,,2,7,39,7,,,,,,,,,,,,,,,,,,,,,,,,,,,,,,,,,,,,,,,,,,,,,,,,,,,,,,,,,,1288.2982028999832,1289.4717575999675,1287.791349099949,1289.4717575999675,1289.4717575999675,1289.4717575999675,0.00606409995816648,0.013167299912311137,180,reward,1,[0.6737937999423593],[0.67379729996901],1290.1522925000172,1290.1522925000172,0.007323400001041591,0.007323400001041591,0.018758499994874,0.0533908000215888,0.060326000093482435,0.10199049999937415,0.10894990002270788,1.0047722000163049,1293.6452584000072,1297.8395032000262,,,,,,,,,,,,,,,,,,,,,,,,,,,,,1,D,2023-12-05_08h30.18.539,gca_avoidance_task,2022.2.4,143.97189665949756,
positions.xlsx,stimuli.xlsx,stimuli/Social2.png,stimuli/Social1.png,stimuli/Nonsocial2.png,stimuli/Nonsocial1.png,,"(-0.7, -0.5)",cs_plus_s,,,,,0,0,0,0,,,,,,,,,2,8,40,1,,,,,,,,,,,,,,,,,,,,,,,,,,,,,,,,,,,,,,,,,,,,,,,,,,,,,,,,,,1298.346381500014,1299.5824886999326,1297.8395032000262,1299.5824886999326,1299.5824886999326,1299.5824886999326,0.0059293999802321196,0.013384100049734116,180,none,0,,,1304.589186899946,1304.589186899946,0.013683400000445545,0.013683400000445545,0.02009230002295226,0.05477220006287098,0.06174170004669577,0.10349080001469702,0.11031140002887696,1.0130673000821844,1308.082051699981,1312.4639090999262,,,,,,,,,,,,,,,,,,,,,,,,,,,,,1,D,2023-12-05_08h30.18.539,gca_avoidance_task,2022.2.4,143.97189665949756,
positions.xlsx,stimuli.xlsx,stimuli/Social2.png,stimuli/Social1.png,stimuli/Nonsocial2.png,stimuli/Nonsocial1.png,,"(0.7, -0.5)",cs_plus_ns,,,,,0,0,0,0,,,,,,,,,2,9,41,11,,,,,,,,,,,,,,,,,,,,,,,,,,,,,,,,,,,,,,,,,,,,,,,,,,,,,,,,,,1312.9707744999323,1314.9082156999502,1312.4639090999262,1314.9082156999502,1314.9082156999502,1314.9082156999502,0.006720999954268336,0.013287500012665987,180,shock,1,[0.22254370001610368],[0.2225471999263391],1315.1373921999475,1315.1373921999475,0.007861900026910007,0.007861900026910007,0.01885190000757575,0.053465900011360645,0.06048210000153631,0.10208159999456257,0.10910899995360523,1.0047919999342412,1318.630294799921,1322.4078620999353,,,,,,,,,,,,,,,,,,,,,,,,,,,,,1,D,2023-12-05_08h30.18.539,gca_avoidance_task,2022.2.4,143.97189665949756,
positions.xlsx,stimuli.xlsx,stimuli/Social2.png,stimuli/Social1.png,stimuli/Nonsocial2.png,stimuli/Nonsocial1.png,,"(0.7, -0.5)",cs_minus_ns,,,,,0,0,0,0,,,,,,,,,2,10,42,15,,,,,,,,,,,,,,,,,,,,,,,,,,,,,,,,,,,,,,,,,,,,,,,,,,,,,,,,,,1322.9148137000157,1324.5605725999922,1322.4078620999353,1324.5605725999922,1324.5605725999922,1324.5605725999922,0.0073225999949499965,0.013096200069412589,185,reward,1,[0.7432227999670431],[0.7432264999952167],1325.3105307000224,1325.3105307000224,0.008639800013042986,0.008639800013042986,0.01835259993094951,0.05300109996460378,0.05995749996509403,0.1016281999181956,0.10859329998493195,1.004439799929969,1328.8034901999636,1333.1644094999647,,,,,,,,,,,,,,,,,,,,,,,,,,,,,1,D,2023-12-05_08h30.18.539,gca_avoidance_task,2022.2.4,143.97189665949756,
positions.xlsx,stimuli.xlsx,stimuli/Social2.png,stimuli/Social1.png,stimuli/Nonsocial2.png,stimuli/Nonsocial1.png,,"(-0.7, 0.5)",cs_plus_s,,,,,0,0,0,0,,,,,,,,,2,11,43,0,,,,,,,,,,,,,,,,,,,,,,,,,,,,,,,,,,,,,,,,,,,,,,,,,,,,,,,,,,1333.6713151999284,1335.3865086999722,1333.1644094999647,1335.3865086999722,1335.3865086999722,1335.3865086999722,0.0058052000822499394,0.013137700036168098,185,none,0,,,1340.3932297999272,1340.3932297999272,0.013715500012040138,0.013715500012040138,0.01981480000540614,0.054506200016476214,0.0615074000088498,0.1030894999857992,0.11004850000608712,1.0127982000121847,1343.8861763000023,1347.5874071000144,,,,,,,,,,,,,,,,,,,,,,,,,,,,,1,D,2023-12-05_08h30.18.539,gca_avoidance_task,2022.2.4,143.97189665949756,
positions.xlsx,stimuli.xlsx,stimuli/Social2.png,stimuli/Social1.png,stimuli/Nonsocial2.png,stimuli/Nonsocial1.png,,"(-0.7, 0.5)",cs_minus_ns,,,,,0,0,0,0,,,,,,,,,2,12,44,12,,,,,,,,,,,,,,,,,,,,,,,,,,,,,,,,,,,,,,,,,,,,,,,,,,,,,,,,,,1348.0943253999576,1349.3651023999555,1347.5874071000144,1349.3651023999555,1349.3651023999555,1349.3651023999555,0.00645819993223995,0.013059800025075674,190,reward,1,[0.5903916999232024],[0.590395399951376],1349.9622964999871,1349.9622964999871,0.00715500011574477,0.00715500011574477,0.01828500011470169,0.052991600008681417,0.05991890002042055,0.10159750003367662,0.10855340003035963,1.0043386000907049,1353.4552360000089,1357.4758596000029,,,,,,,,,,,,,,,,,,,,,,,,,,,,,1,D,2023-12-05_08h30.18.539,gca_avoidance_task,2022.2.4,143.97189665949756,
positions.xlsx,stimuli.xlsx,stimuli/Social2.png,stimuli/Social1.png,stimuli/Nonsocial2.png,stimuli/Nonsocial1.png,,"(0.7, 0.5)",cs_plus_ns,,,,,0,0,0,0,,,,,,,,,2,13,45,10,,,,,,,,,,,,,,,,,,,,,,,,,,,,,,,,,,,,,,,,,,,,,,,,,,,,,,,,,,1357.9827425000258,1359.760482499958,1357.4758596000029,1359.760482499958,1359.760482499958,1359.760482499958,0.006434399983845651,0.013023000094108284,190,shock,1,[0.5347292000660673],[0.534732700092718],1360.302125499933,1360.302125499933,0.00772189989220351,0.00772189989220351,0.018493999959900975,0.05317589989863336,0.06014869990758598,0.10180499998386949,0.10883909999392927,1.0044859999325126,1363.7950920999283,1367.3504875999643,,,,,,,,,,,,,,,,,,,,,,,,,,,,,1,D,2023-12-05_08h30.18.539,gca_avoidance_task,2022.2.4,143.97189665949756,
positions.xlsx,stimuli.xlsx,stimuli/Social2.png,stimuli/Social1.png,stimuli/Nonsocial2.png,stimuli/Nonsocial1.png,,"(-0.7, 0.5)",cs_minus_s,,,,,0,0,0,0,,,,,,,,,2,14,46,4,,,,,,,,,,,,,,,,,,,,,,,,,,,,,,,,,,,,,,,,,,,,,,,,,,,,,,,,,,1367.8573651999468,1369.273938599974,1367.3504875999643,1369.273938599974,1369.273938599974,1369.273938599974,0.006746200029738247,0.013157600071281195,195,reward,1,[0.5000826000468805],[0.5000863000750542],1369.780916400021,1369.780916400021,0.007813700009137392,0.007813700009137392,0.018667900003492832,0.05321479996200651,0.060191099997609854,0.10195359995122999,0.1087804000126198,1.0045881000114605,1373.2738702999195,1377.0652944999747,,,,,,,,,,,,,,,,,,,,,,,,,,,,,1,D,2023-12-05_08h30.18.539,gca_avoidance_task,2022.2.4,143.97189665949756,
positions.xlsx,stimuli.xlsx,stimuli/Social2.png,stimuli/Social1.png,stimuli/Nonsocial2.png,stimuli/Nonsocial1.png,,"(0.7, 0.5)",cs_minus_s,,,,,0,0,0,0,,,,,,,,,2,15,47,6,,,,,,,,,,,,,,,,,,,,,,,,,,,,,,,,,,,,,,,,,,,,,,,,,,,,,,,,,,1377.572213599924,1378.8222140999278,1377.0652944999747,1378.8222140999278,1378.8222140999278,1378.8222140999278,0.006674600066617131,0.013387300074100494,200,reward,1,[0.5350580000085756],[0.5350614000344649],1379.3638493999606,1379.3638493999606,0.006911500007845461,0.006911500007845461,0.018626000033691525,0.05329289997462183,0.060246999957598746,0.10188209998887032,0.10882089997176081,1.0046472999965772,1382.8567880999763,1386.995531899971,,,,,,,,,,,,,,,,,,,,,,,,,,,,,1,D,2023-12-05_08h30.18.539,gca_avoidance_task,2022.2.4,143.97189665949756,
positions.xlsx,stimuli.xlsx,stimuli/Social2.png,stimuli/Social1.png,stimuli/Nonsocial2.png,stimuli/Nonsocial1.png,,"(0.7, 0.5)",cs_minus_ns,,,,,0,0,0,0,,,,,,,,,3,0,48,14,,,,,,,,,,,,,,,,,,,,,,,,,,,,,,,,,,,,,,,,,,,,,,,,,,,,,,,,,,1387.5023919999367,1388.6898356999736,1386.995531899971,1388.6898356999736,1388.6898356999736,1388.6898356999736,0.006844199961051345,0.01319379999767989,205,reward,1,[0.5557769999140874],[0.555780699942261],1389.2523232999956,1389.2523232999956,0.007653499953448772,0.007653499953448772,0.018350599915720522,0.05303980002645403,0.059975899988785386,0.10162219998892397,0.1085728999460116,1.0043271000031382,1392.745252099936,1396.4187366999686,,,,,,,,,,,,,,,,,,,,,,,,,,,,,1,D,2023-12-05_08h30.18.539,gca_avoidance_task,2022.2.4,143.97189665949756,
positions.xlsx,stimuli.xlsx,stimuli/Social2.png,stimuli/Social1.png,stimuli/Nonsocial2.png,stimuli/Nonsocial1.png,,"(-0.7, -0.5)",cs_minus_ns,,,,,0,0,0,0,,,,,,,,,3,1,49,13,,,,,,,,,,,,,,,,,,,,,,,,,,,,,,,,,,,,,,,,,,,,,,,,,,,,,,,,,,1396.9256136999466,1398.2449762999313,1396.4187366999686,1398.2449762999313,1398.2449762999313,1398.2449762999313,0.006428299937397242,0.013159999973140657,210,reward,1,[0.5766246999846771],[0.5766277998918667],1398.8282680999255,1398.8282680999255,0.008329199976287782,0.008329199976287782,0.018342899973504245,0.05302039999514818,0.06001779995858669,0.10163219994865358,0.10863269993569702,1.0043713999912143,1402.3212699999567,1406.7585595999844,,,,,,,,,,,,,,,,,,,,,,,,,,,,,1,D,2023-12-05_08h30.18.539,gca_avoidance_task,2022.2.4,143.97189665949756,
positions.xlsx,stimuli.xlsx,stimuli/Social2.png,stimuli/Social1.png,stimuli/Nonsocial2.png,stimuli/Nonsocial1.png,,"(-0.7, -0.5)",cs_plus_s,,,,,0,0,0,0,,,,,,,,,3,2,50,1,,,,,,,,,,,,,,,,,,,,,,,,,,,,,,,,,,,,,,,,,,,,,,,,,,,,,,,,,,1407.2654372999677,1408.7028781999834,1406.7585595999844,1408.7028781999834,1408.7028781999834,1408.7028781999834,0.005991899990476668,0.012971099931746721,210,none,0,,,1413.709627599921,1413.709627599921,0.01323669997509569,0.01323669997509569,0.01969499990809709,0.054362199967727065,0.061332399956882,0.10296599997673184,0.10994389990810305,1.0126700999680907,1417.2025604000082,1421.688514099922,,,,,,,,,,,,,,,,,,,,,,,,,,,,,1,D,2023-12-05_08h30.18.539,gca_avoidance_task,2022.2.4,143.97189665949756,
positions.xlsx,stimuli.xlsx,stimuli/Social2.png,stimuli/Social1.png,stimuli/Nonsocial2.png,stimuli/Nonsocial1.png,,"(-0.7, -0.5)",cs_minus_s,,,,,0,0,0,0,,,,,,,,,3,3,51,5,,,,,,,,,,,,,,,,,,,,,,,,,,,,,,,,,,,,,,,,,,,,,,,,,,,,,,,,,,1422.1953570999904,1423.9036859999178,1421.688514099922,1423.9036859999178,1423.9036859999178,1423.9036859999178,0.005470499978400767,0.013231099932454526,215,reward,1,[0.6739560998976231],[0.6739595999242738],1424.5841500000097,1424.5841500000097,0.007084100041538477,0.007084100041538477,0.018593000015243888,0.05328019999433309,0.06031279999297112,0.10190550005063415,0.1088605000404641,1.0046452999813482,1428.0771084999433,1431.6533673999365,,,,,,,,,,,,,,,,,,,,,,,,,,,,,1,D,2023-12-05_08h30.18.539,gca_avoidance_task,2022.2.4,143.97189665949756,
positions.xlsx,stimuli.xlsx,stimuli/Social2.png,stimuli/Social1.png,stimuli/Nonsocial2.png,stimuli/Nonsocial1.png,,"(0.7, -0.5)",cs_minus_ns,,,,,0,0,0,0,,,,,,,,,3,4,52,15,,,,,,,,,,,,,,,,,,,,,,,,,,,,,,,,,,,,,,,,,,,,,,,,,,,,,,,,,,1432.16026039992,1433.6393279000185,1431.6533673999365,1433.6393279000185,1433.6393279000185,1433.6393279000185,0.006695099989883602,0.013479999965056777,220,reward,1,[0.736675199936144],[0.7435869999462739],1434.3892996999202,1434.3892996999202,0.007327700033783913,0.007327700033783913,0.01829779997933656,0.053003799985162914,0.0599230999359861,0.10157980001531541,0.10854329995345324,1.0043162000365555,1437.8822619999992,1442.0835239000153,,,,,,,,,,,,,,,,,,,,,,,,,,,,,1,D,2023-12-05_08h30.18.539,gca_avoidance_task,2022.2.4,143.97189665949756,
positions.xlsx,stimuli.xlsx,stimuli/Social2.png,stimuli/Social1.png,stimuli/Nonsocial2.png,stimuli/Nonsocial1.png,,"(0.7, -0.5)",cs_plus_s,,,,,0,0,0,0,,,,,,,,,3,5,53,3,,,,,,,,,,,,,,,,,,,,,,,,,,,,,,,,,,,,,,,,,,,,,,,,,,,,,,,,,,1442.5903646999504,1443.8056079000235,1442.0835239000153,1443.8056079000235,1443.8056079000235,1443.8056079000235,0.005911299958825111,0.013378500007092953,220,none,0,,,1448.8123188000172,1448.8123188000172,0.01408420002553612,0.01408420002553612,0.020142900058999658,0.05479520000517368,0.06176620000042021,0.10339079995173961,0.1105542000150308,1.0130636000540107,1452.305247399956,1456.284268099931,,,,,,,,,,,,,,,,,,,,,,,,,,,,,1,D,2023-12-05_08h30.18.539,gca_avoidance_task,2022.2.4,143.97189665949756,
positions.xlsx,stimuli.xlsx,stimuli/Social2.png,stimuli/Social1.png,stimuli/Nonsocial2.png,stimuli/Nonsocial1.png,,"(-0.7, 0.5)",cs_minus_ns,,,,,0,0,0,0,,,,,,,,,3,6,54,12,,,,,,,,,,,,,,,,,,,,,,,,,,,,,,,,,,,,,,,,,,,,,,,,,,,,,,,,,,1456.79111380002,1457.9924569999566,1456.284268099931,1457.9924569999566,1457.9924569999566,1457.9924569999566,0.006619099993258715,0.013222700101323426,225,reward,1,[0.9030328000662848],[0.9030362000921741],1458.9021804999793,1458.9021804999793,0.007816200028173625,0.007816200028173625,0.018455500015988946,0.053145900019444525,0.06011329998727888,0.10171989991795272,0.10869449994061142,1.0044635999947786,1462.3951453999616,1466.4644017999526,,,,,,,,,,,,,,,,,,,,,,,,,,,,,1,D,2023-12-05_08h30.18.539,gca_avoidance_task,2022.2.4,143.97189665949756,
positions.xlsx,stimuli.xlsx,stimuli/Social2.png,stimuli/Social1.png,stimuli/Nonsocial2.png,stimuli/Nonsocial1.png,,"(0.7, -0.5)",cs_minus_s,,,,,0,0,0,0,,,,,,,,,3,7,55,7,,,,,,,,,,,,,,,,,,,,,,,,,,,,,,,,,,,,,,,,,,,,,,,,,,,,,,,,,,1466.9713107999414,1468.3670496999985,1466.4644017999526,1468.3670496999985,1468.3670496999985,1468.3670496999985,0.006259899935685098,0.01323959999717772,230,reward,1,[0.576715899980627],[0.5767195000080392],1468.9503788999282,1468.9503788999282,0.00811329996213317,0.00811329996213317,0.018014299916103482,0.052646599942818284,0.05964170000515878,0.10125449998304248,0.10820629994850606,1.0039832999464124,1472.4433082999894,1476.6792743999977,,,,,,,,,,,,,,,,,,,,,,,,,,,,,1,D,2023-12-05_08h30.18.539,gca_avoidance_task,2022.2.4,143.97189665949756,
positions.xlsx,stimuli.xlsx,stimuli/Social2.png,stimuli/Social1.png,stimuli/Nonsocial2.png,stimuli/Nonsocial1.png,,"(0.7, 0.5)",cs_plus_s,,,,,0,0,0,0,,,,,,,,,3,8,56,2,,,,,,,,,,,,,,,,,,,,,,,,,,,,,,,,,,,,,,,,,,,,,,,,,,,,,,,,,,1477.1861728000222,1479.0124073999468,1476.6792743999977,1479.0124073999468,1479.0124073999468,1479.0124073999468,0.0059798998991027474,0.013036899967119098,230,shock,1,[2.4026785999303684],[2.402682299958542],1481.4220627999166,1481.4220627999166,0.007770800031721592,0.007770800031721592,0.018301500007510185,0.0530566000379622,0.05997290008235723,0.10166280006524175,0.10856520000379533,1.0043182000517845,1484.9150338999461,1488.9148069999646,,,,,,,,,,,,,,,,,,,,,,,,,,,,,1,D,2023-12-05_08h30.18.539,gca_avoidance_task,2022.2.4,143.97189665949756,
positions.xlsx,stimuli.xlsx,stimuli/Social2.png,stimuli/Social1.png,stimuli/Nonsocial2.png,stimuli/Nonsocial1.png,,"(-0.7, 0.5)",cs_plus_ns,,,,,0,0,0,0,,,,,,,,,3,9,57,8,,,,,,,,,,,,,,,,,,,,,,,,,,,,,,,,,,,,,,,,,,,,,,,,,,,,,,,,,,1489.4217278999276,1491.157764100004,1488.9148069999646,1491.157764100004,1491.157764100004,1491.157764100004,0.006775999907404184,0.01306319993454963,230,none,0,,,1496.1644937000237,1496.1644937000237,0.013912800000980496,0.013912800000980496,0.01980159990489483,0.05449659994337708,0.061490499996580184,0.10308899998199195,0.1100752999773249,1.0128088999772444,1499.6574807999423,1503.9072628000285,,,,,,,,,,,,,,,,,,,,,,,,,,,,,1,D,2023-12-05_08h30.18.539,gca_avoidance_task,2022.2.4,143.97189665949756,
positions.xlsx,stimuli.xlsx,stimuli/Social2.png,stimuli/Social1.png,stimuli/Nonsocial2.png,stimuli/Nonsocial1.png,,"(0.7, 0.5)",cs_minus_s,,,,,0,0,0,0,,,,,,,,,3,10,58,6,,,,,,,,,,,,,,,,,,,,,,,,,,,,,,,,,,,,,,,,,,,,,,,,,,,,,,,,,,1504.414149099961,1505.823786700028,1503.9072628000285,1505.823786700028,1505.823786700028,1505.823786700028,0.006015100050717592,0.013432900072075427,235,reward,1,[0.5218290000921115],[0.5218325000023469],1506.3515908999834,1506.3515908999834,0.007585400016978383,0.007585400016978383,0.018265599966980517,0.052919500041753054,0.05989559995941818,0.10152649995870888,0.10850420000497252,1.0043280000099912,1509.8445214999374,1513.8721632999368,,,,,,,,,,,,,,,,,,,,,,,,,,,,,1,D,2023-12-05_08h30.18.539,gca_avoidance_task,2022.2.4,143.97189665949756,
positions.xlsx,stimuli.xlsx,stimuli/Social2.png,stimuli/Social1.png,stimuli/Nonsocial2.png,stimuli/Nonsocial1.png,,"(0.7, 0.5)",cs_plus_ns,,,,,0,0,0,0,,,,,,,,,3,11,59,10,,,,,,,,,,,,,,,,,,,,,,,,,,,,,,,,,,,,,,,,,,,,,,,,,,,,,,,,,,1514.3789775000187,1516.087314400007,1513.8721632999368,1516.087314400007,1516.087314400007,1516.087314400007,0.006254600011743605,0.013396200025454164,235,none,0,,,1521.0940080999862,1521.0940080999862,0.013905800064094365,0.013905800064094365,0.020129700074903667,0.05483540007844567,0.06179360009264201,0.10336599999573082,0.11033799999859184,1.0131162999896333,1524.5869824999245,1528.9131924000103,,,,,,,,,,,,,,,,,,,,,,,,,,,,,1,D,2023-12-05_08h30.18.539,gca_avoidance_task,2022.2.4,143.97189665949756,
positions.xlsx,stimuli.xlsx,stimuli/Social2.png,stimuli/Social1.png,stimuli/Nonsocial2.png,stimuli/Nonsocial1.png,,"(-0.7, -0.5)",cs_plus_ns,,,,,0,0,0,0,,,,,,,,,3,12,60,9,,,,,,,,,,,,,,,,,,,,,,,,,,,,,,,,,,,,,,,,,,,,,,,,,,,,,,,,,,1529.4200554999989,1530.4408079999266,1528.9131924000103,1530.4408079999266,1530.4408079999266,1530.4408079999266,0.006420099991373718,0.013321600039489567,235,shock,1,[3.875458199996501],[3.8754618000239134],1534.3226691000164,1534.3226691000164,0.007503199973143637,0.007503199973143637,0.018618199974298477,0.05318689998239279,0.0601651999168098,0.10182009998243302,0.10871849989052862,1.004503499949351,1537.8155486999312,1542.0237513999455,,,,,,,,,,,,,,,,,,,,,,,,,,,,,1,D,2023-12-05_08h30.18.539,gca_avoidance_task,2022.2.4,143.97189665949756,
positions.xlsx,stimuli.xlsx,stimuli/Social2.png,stimuli/Social1.png,stimuli/Nonsocial2.png,stimuli/Nonsocial1.png,,"(-0.7, 0.5)",cs_minus_s,,,,,0,0,0,0,,,,,,,,,3,13,61,4,,,,,,,,,,,,,,,,,,,,,,,,,,,,,,,,,,,,,,,,,,,,,,,,,,,,,,,,,,1542.5306106000207,1544.1069433999946,1542.0237513999455,1544.1069433999946,1544.1069433999946,1544.1069433999946,0.005780900013633072,0.013108199927955866,240,reward,1,[0.5555961999343708],[0.555599799961783],1544.6694625000237,1544.6694625000237,0.006675899960100651,0.006675899960100651,0.018839499913156033,0.053461199975572526,0.06043650000356138,0.10214119998272508,0.10906819999217987,1.0048182999016717,1548.1623126999475,1552.1622178999241,,,,,,,,,,,,,,,,,,,,,,,,,,,,,1,D,2023-12-05_08h30.18.539,gca_avoidance_task,2022.2.4,143.97189665949756,
positions.xlsx,stimuli.xlsx,stimuli/Social2.png,stimuli/Social1.png,stimuli/Nonsocial2.png,stimuli/Nonsocial1.png,,"(0.7, -0.5)",cs_plus_ns,,,,,0,0,0,0,,,,,,,,,3,14,62,11,,,,,,,,,,,,,,,,,,,,,,,,,,,,,,,,,,,,,,,,,,,,,,,,,,,,,,,,,,1552.6691445999313,1553.807931700023,1552.1622178999241,1553.807931700023,1553.807931700023,1553.807931700023,0.006311999983154237,0.012902199989184737,240,none,0,,,1558.81468890002,1558.81468890002,0.013581800041720271,0.013581800041720271,0.01963860006071627,0.05430419999174774,0.06125250004697591,0.10297460004221648,0.10987489996477962,1.0126294000074267,1562.307624500012,1565.9602662000107,,,,,,,,,,,,,,,,,,,,,,,,,,,,,1,D,2023-12-05_08h30.18.539,gca_avoidance_task,2022.2.4,143.97189665949756,
positions.xlsx,stimuli.xlsx,stimuli/Social2.png,stimuli/Social1.png,stimuli/Nonsocial2.png,stimuli/Nonsocial1.png,,"(-0.7, 0.5)",cs_plus_s,,,,,0,0,0,0,,,,,,,,,3,15,63,0,,,,,,,,,,,,,,,,,,,,,,,,,,,,,,,,,,,,,,,,,,,,,,,,,,,,,,,,,,1566.4671563999727,1567.6962556999642,1565.9602662000107,1567.6962556999642,1567.6962556999642,1567.6962556999642,0.005862399935722351,0.012786399922333658,240,none,0,,,1572.703061999986,1572.703061999986,0.0131964999018237,0.0131964999018237,0.01965769997332245,0.05423579993657768,0.06117140001151711,0.10286909993737936,0.10978850000537932,1.0125193999847397,1576.1959783999482,1580.0499495000113,,,,,,,,,,,,,,,,,,,,,,,,,,,,,1,D,2023-12-05_08h30.18.539,gca_avoidance_task,2022.2.4,143.97189665949756,
positions.xlsx,stimuli.xlsx,stimuli/Social2.png,stimuli/Social1.png,stimuli/Nonsocial2.png,stimuli/Nonsocial1.png,,"(-0.7, 0.5)",cs_minus_s,,,,,0,0,0,0,,,,,,,,,4,0,64,4,,,,,,,,,,,,,,,,,,,,,,,,,,,,,,,,,,,,,,,,,,,,,,,,,,,,,,,,,,1580.5568097999785,1581.8345371999312,1580.0499495000113,1581.8345371999312,1581.8345371999312,1581.8345371999312,0.006259800051338971,0.013051100075244904,245,reward,1,[0.5625591001007706],[0.5625627000117674],1582.4039679999696,1582.4039679999696,0.006957000005058944,0.006957000005058944,0.0183574000839144,0.05301490006968379,0.06000599998515099,0.10168520000297576,0.10864710004534572,1.0044405000517145,1585.8969379999908,1589.7787591000088,,,,,,,,,,,,,,,,,,,,,,,,,,,,,1,D,2023-12-05_08h30.18.539,gca_avoidance_task,2022.2.4,143.97189665949756,
positions.xlsx,stimuli.xlsx,stimuli/Social2.png,stimuli/Social1.png,stimuli/Nonsocial2.png,stimuli/Nonsocial1.png,,"(-0.7, -0.5)",cs_minus_s,,,,,0,0,0,0,,,,,,,,,4,1,65,5,,,,,,,,,,,,,,,,,,,,,,,,,,,,,,,,,,,,,,,,,,,,,,,,,,,,,,,,,,1590.285568399937,1591.500784099917,1589.7787591000088,1591.500784099917,1591.500784099917,1591.500784099917,0.005751699907705188,0.013376699993386865,250,reward,1,[0.6531264999648556],[0.6531302999937907],1592.1605580999749,1592.1605580999749,0.0072206000331789255,0.0072206000331789255,0.018877000082284212,0.05350240005645901,0.06046559999231249,0.10214860003907233,0.10906020004767925,1.0048559000715613,1595.653419899987,1599.8269095999422,,,,,,,,,,,,,,,,,,,,,,,,,,,,,1,D,2023-12-05_08h30.18.539,gca_avoidance_task,2022.2.4,143.97189665949756,
positions.xlsx,stimuli.xlsx,stimuli/Social2.png,stimuli/Social1.png,stimuli/Nonsocial2.png,stimuli/Nonsocial1.png,,"(-0.7, -0.5)",cs_minus_ns,,,,,0,0,0,0,,,,,,,,,4,2,66,13,,,,,,,,,,,,,,,,,,,,,,,,,,,,,,,,,,,,,,,,,,,,,,,,,,,,,,,,,,1600.3337496999884,1602.1739858000074,1599.8269095999422,1602.1739858000074,1602.1739858000074,1602.1739858000074,0.006829499965533614,0.013401599950157106,255,reward,1,[0.8197567999595776],[0.8197601999854669],1603.000334899989,1603.000334899989,0.007400900009088218,0.007400900009088218,0.01870820007752627,0.05338120006490499,0.060354100074619055,0.10200160008389503,0.10891439998522401,1.004725300008431,1606.4932619999163,1610.0556172999786,,,,,,,,,,,,,,,,,,,,,,,,,,,,,1,D,2023-12-05_08h30.18.539,gca_avoidance_task,2022.2.4,143.97189665949756,
positions.xlsx,stimuli.xlsx,stimuli/Social2.png,stimuli/Social1.png,stimuli/Nonsocial2.png,stimuli/Nonsocial1.png,,"(0.7, -0.5)",cs_minus_s,,,,,0,0,0,0,,,,,,,,,4,3,67,7,,,,,,,,,,,,,,,,,,,,,,,,,,,,,,,,,,,,,,,,,,,,,,,,,,,,,,,,,,1610.562553799944,1611.8332742999773,1610.0556172999786,1611.8332742999773,1611.8332742999773,1611.8332742999773,0.0059828000376001,0.01338030002079904,260,reward,1,[0.6045094000874087],[0.6045127999968827],1612.444395300001,1612.444395300001,0.006528400001116097,0.006528400001116097,0.018693899968639016,0.053372700000181794,0.06031149998307228,0.10195689997635782,0.10896390001289546,1.0046793000074103,1615.9373111999594,1619.5830582999624,,,,,,,,,,,,,,,,,,,,,,,,,,,,,1,D,2023-12-05_08h30.18.539,gca_avoidance_task,2022.2.4,143.97189665949756,
positions.xlsx,stimuli.xlsx,stimuli/Social2.png,stimuli/Social1.png,stimuli/Nonsocial2.png,stimuli/Nonsocial1.png,,"(-0.7, 0.5)",cs_plus_s,,,,,0,0,0,0,,,,,,,,,4,4,68,0,,,,,,,,,,,,,,,,,,,,,,,,,,,,,,,,,,,,,,,,,,,,,,,,,,,,,,,,,,1620.0899440000067,1621.3676214999286,1619.5830582999624,1621.3676214999286,1621.3676214999286,1621.3676214999286,0.006203100085258484,0.013351300032809377,260,none,0,,,1626.3813518999377,1626.3813518999377,0.014238500036299229,0.014238500036299229,0.02710000006482005,0.054751900024712086,0.061745400074869394,0.10343550005927682,0.11034020001534373,1.0130453000310808,1629.8673686999828,1633.7352410999592,,,,,,,,,,,,,,,,,,,,,,,,,,,,,1,D,2023-12-05_08h30.18.539,gca_avoidance_task,2022.2.4,143.97189665949756,
positions.xlsx,stimuli.xlsx,stimuli/Social2.png,stimuli/Social1.png,stimuli/Nonsocial2.png,stimuli/Nonsocial1.png,,"(0.7, 0.5)",cs_minus_ns,,,,,0,0,0,0,,,,,,,,,4,5,69,14,,,,,,,,,,,,,,,,,,,,,,,,,,,,,,,,,,,,,,,,,,,,,,,,,,,,,,,,,,1634.242100299918,1635.4087158999173,1633.7352410999592,1635.4087158999173,1635.4087158999173,1635.4087158999173,0.0077052999986335635,0.013301099999807775,265,reward,1,[0.5558758999686688],[0.5558798999991268],1635.9712127000093,1635.9712127000093,0.008250699960626662,0.008250699960626662,0.018503899918869138,0.053167899954132736,0.060106099932454526,0.10175009991507977,0.10866799997165799,1.004456999944523,1639.4641232999275,1643.3459049999947,,,,,,,,,,,,,,,,,,,,,,,,,,,,,1,D,2023-12-05_08h30.18.539,gca_avoidance_task,2022.2.4,143.97189665949756,
positions.xlsx,stimuli.xlsx,stimuli/Social2.png,stimuli/Social1.png,stimuli/Nonsocial2.png,stimuli/Nonsocial1.png,,"(-0.7, -0.5)",cs_plus_s,,,,,0,0,0,0,,,,,,,,,4,6,70,1,,,,,,,,,,,,,,,,,,,,,,,,,,,,,,,,,,,,,,,,,,,,,,,,,,,,,,,,,,1643.8528085999424,1645.3874821999343,1643.3459049999947,1645.3874821999343,1645.3874821999343,1645.3874821999343,0.006249599973671138,0.01306500006467104,265,none,0,,,1650.394240799942,1650.394240799942,0.013205099967308342,0.013205099967308342,0.019845100003294647,0.05446580005809665,0.06144489999860525,0.10313149995636195,0.11005470005329698,1.0127353999996558,1653.8871819999767,1658.1300261999713,,,,,,,,,,,,,,,,,,,,,,,,,,,,,1,D,2023-12-05_08h30.18.539,gca_avoidance_task,2022.2.4,143.97189665949756,
positions.xlsx,stimuli.xlsx,stimuli/Social2.png,stimuli/Social1.png,stimuli/Nonsocial2.png,stimuli/Nonsocial1.png,,"(-0.7, 0.5)",cs_minus_ns,,,,,0,0,0,0,,,,,,,,,4,7,71,12,,,,,,,,,,,,,,,,,,,,,,,,,,,,,,,,,,,,,,,,,,,,,,,,,,,,,,,,,,1658.6369084999897,1660.4632195999147,1658.1300261999713,1660.4632195999147,1660.4632195999147,1660.4632195999147,0.006601199973374605,0.013146599987521768,270,reward,1,[0.5071283999131992],[0.5071321999421343],1660.9771031999262,1660.9771031999262,0.008649000083096325,0.008649000083096325,0.01825510000344366,0.052951800054870546,0.05990310001652688,0.10148290009237826,0.10846610006410629,1.0042471000924706,1664.4700605999678,1668.7684722000267,,,,,,,,,,,,,,,,,,,,,,,,,,,,,1,D,2023-12-05_08h30.18.539,gca_avoidance_task,2022.2.4,143.97189665949756,
positions.xlsx,stimuli.xlsx,stimuli/Social2.png,stimuli/Social1.png,stimuli/Nonsocial2.png,stimuli/Nonsocial1.png,,"(0.7, 0.5)",cs_plus_s,,,,,0,0,0,0,,,,,,,,,4,8,72,2,,,,,,,,,,,,,,,,,,,,,,,,,,,,,,,,,,,,,,,,,,,,,,,,,,,,,,,,,,1669.2753330999985,1671.0877867999952,1668.7684722000267,1671.0877867999952,1671.0877867999952,1671.0877867999952,0.006693800096400082,0.013197800028137863,270,none,0,,,1676.0945230999496,1676.0945230999496,0.013303500018082559,0.013303500018082559,0.019980400102213025,0.05464260000735521,0.06157760007772595,0.10321319999638945,0.11016969999764115,1.0129240000387654,1679.58749169996,1684.0456010999624,,,,,,,,,,,,,,,,,,,,,,,,,,,,,1,D,2023-12-05_08h30.18.539,gca_avoidance_task,2022.2.4,143.97189665949756,
positions.xlsx,stimuli.xlsx,stimuli/Social2.png,stimuli/Social1.png,stimuli/Nonsocial2.png,stimuli/Nonsocial1.png,,"(0.7, 0.5)",cs_minus_s,,,,,0,0,0,0,,,,,,,,,4,9,73,6,,,,,,,,,,,,,,,,,,,,,,,,,,,,,,,,,,,,,,,,,,,,,,,,,,,,,,,,,,1684.5524941999465,1686.5038046999834,1684.0456010999624,1686.5038046999834,1686.5038046999834,1686.5038046999834,0.006167000043205917,0.013557699974626303,275,reward,1,[0.549081000033766],[0.5490844999440014],1687.0593546999153,1687.0593546999153,0.006732400041073561,0.006732400041073561,0.018595000030472875,0.053317700047045946,0.06029419996775687,0.10186330007854849,0.10881310002878308,1.0046120000770316,1690.5523054000223,1694.781300399918,,,,,,,,,,,,,,,,,,,,,,,,,,,,,1,D,2023-12-05_08h30.18.539,gca_avoidance_task,2022.2.4,143.97189665949756,
positions.xlsx,stimuli.xlsx,stimuli/Social2.png,stimuli/Social1.png,stimuli/Nonsocial2.png,stimuli/Nonsocial1.png,,"(-0.7, 0.5)",cs_plus_ns,,,,,0,0,0,0,,,,,,,,,4,10,74,8,,,,,,,,,,,,,,,,,,,,,,,,,,,,,,,,,,,,,,,,,,,,,,,,,,,,,,,,,,1695.2881283999886,1696.343680699938,1694.781300399918,1696.343680699938,1696.343680699938,1696.343680699938,0.0063946000300347805,0.013010900001972914,275,shock,1,[0.6389801999321207],[0.6389838999602944],1696.9894904999528,1696.9894904999528,0.007666199933737516,0.007666199933737516,0.018386299954727292,0.053090899949893355,0.05998969997745007,0.10161379992496222,0.10859229997731745,1.004353699972853,1700.4824086999288,1704.2044918999309,,,,,,,,,,,,,,,,,,,,,,,,,,,,,1,D,2023-12-05_08h30.18.539,gca_avoidance_task,2022.2.4,143.97189665949756,
positions.xlsx,stimuli.xlsx,stimuli/Social2.png,stimuli/Social1.png,stimuli/Nonsocial2.png,stimuli/Nonsocial1.png,,"(0.7, -0.5)",cs_plus_ns,,,,,0,0,0,0,,,,,,,,,4,11,75,11,,,,,,,,,,,,,,,,,,,,,,,,,,,,,,,,,,,,,,,,,,,,,,,,,,,,,,,,,,1704.7113602999598,1706.1141241999576,1704.2044918999309,1706.1141241999576,1706.1141241999576,1706.1141241999576,0.006334100035019219,0.013438900001347065,275,none,0,,,1711.1207977000158,1711.1207977000158,0.015675800037570298,0.015675800037570298,0.02011580008547753,0.05483860010281205,0.06181850004941225,0.10343380004633218,0.11038810003083199,1.013142800075002,1714.613812400028,1718.2803121999605,,,,,,,,,,,,,,,,,,,,,,,,,,,,,1,D,2023-12-05_08h30.18.539,gca_avoidance_task,2022.2.4,143.97189665949756,
positions.xlsx,stimuli.xlsx,stimuli/Social2.png,stimuli/Social1.png,stimuli/Nonsocial2.png,stimuli/Nonsocial1.png,,"(-0.7, -0.5)",cs_plus_ns,,,,,0,0,0,0,,,,,,,,,4,12,76,9,,,,,,,,,,,,,,,,,,,,,,,,,,,,,,,,,,,,,,,,,,,,,,,,,,,,,,,,,,1718.7871591999428,1720.0788145000115,1718.2803121999605,1720.0788145000115,1720.0788145000115,1720.0788145000115,0.007346799946390092,0.01312839996535331,275,shock,1,[4.326218600035645],[4.326222199946642],1724.4119791999692,1724.4119791999692,0.00842299999203533,0.00842299999203533,0.01845329999923706,0.05311259999871254,0.060066199977882206,0.10170110000763088,0.10865289997309446,1.0044700000435114,1727.9049179999856,1731.9949790999526,,,,,,,,,,,,,,,,,,,,,,,,,,,,,1,D,2023-12-05_08h30.18.539,gca_avoidance_task,2022.2.4,143.97189665949756,
positions.xlsx,stimuli.xlsx,stimuli/Social2.png,stimuli/Social1.png,stimuli/Nonsocial2.png,stimuli/Nonsocial1.png,,"(0.7, 0.5)",cs_plus_ns,,,,,0,0,0,0,,,,,,,,,4,13,77,10,,,,,,,,,,,,,,,,,,,,,,,,,,,,,,,,,,,,,,,,,,,,,,,,,,,,,,,,,,1732.5018527000211,1733.8421208999353,1731.9949790999526,1733.8421208999353,1733.8421208999353,1733.8421208999353,0.007418100023642182,0.013185500050894916,275,none,0,,,1738.8488621999277,1738.8488621999277,0.015125400037504733,0.015125400037504733,0.01992750004865229,0.05458100000396371,0.06154979998245835,0.10319150006398559,0.1101257000118494,1.0128263999940827,1742.341802699957,1746.390184400021,,,,,,,,,,,,,,,,,,,,,,,,,,,,,1,D,2023-12-05_08h30.18.539,gca_avoidance_task,2022.2.4,143.97189665949756,
positions.xlsx,stimuli.xlsx,stimuli/Social2.png,stimuli/Social1.png,stimuli/Nonsocial2.png,stimuli/Nonsocial1.png,,"(0.7, -0.5)",cs_minus_ns,,,,,0,0,0,0,,,,,,,,,4,14,78,15,,,,,,,,,,,,,,,,,,,,,,,,,,,,,,,,,,,,,,,,,,,,,,,,,,,,,,,,,,1746.8970714999596,1748.9039629999315,1746.390184400021,1748.9039629999315,1748.9039629999315,1748.9039629999315,0.007695200038142502,0.013370500062592328,280,reward,1,[0.6669521000003442],[0.6669558000285178],1749.5775486999191,1749.5775486999191,0.00773239997215569,0.00773239997215569,0.018377000000327826,0.053062799968756735,0.06001280003692955,0.1016795999603346,0.10866979998536408,1.0044170999899507,1753.0704718999332,1756.7023237999529,,,,,,,,,,,,,,,,,,,,,,,,,,,,,1,D,2023-12-05_08h30.18.539,gca_avoidance_task,2022.2.4,143.97189665949756,
positions.xlsx,stimuli.xlsx,stimuli/Social2.png,stimuli/Social1.png,stimuli/Nonsocial2.png,stimuli/Nonsocial1.png,,"(0.7, -0.5)",cs_plus_s,,,,,0,0,0,0,,,,,,,,,4,15,79,3,,,,,,,,,,,,,,,,,,,,,,,,,,,,,,,,,,,,,,,,,,,,,,,,,,,,,,,,,,1757.209179700003,1758.25079979992,1756.7023237999529,1758.25079979992,1758.25079979992,1758.25079979992,0.006196299917064607,0.012870199978351593,280,none,0,,,1763.2575434999308,1763.2575434999308,0.013857899932190776,0.013857899932190776,0.01962079992517829,0.054304399993270636,0.061266499920748174,0.10294669994618744,0.1098659000126645,1.012635999941267,1766.7504715999821,1770.673859499977,,,,,,,,,,,,,,,,,,,,,,,,,,,,,1,D,2023-12-05_08h30.18.539,gca_avoidance_task,2022.2.4,143.97189665949756,
positions.xlsx,stimuli.xlsx,stimuli/Social2.png,stimuli/Social1.png,stimuli/Nonsocial2.png,stimuli/Nonsocial1.png,cs_minus_s,,,,,,,0,0,0,0,,,,,,,,,,,,,0,0,0,2,,,,,,,,,,,,,,,,,,,,,,,,,,,,,,,,,,,,,,,,,,,1782.8608866999857,1782.8608866999857,1786.242741899914,8.0,3.371959599899128,space,1.2308679999550804,,,,,,,,,,,,,,,,,,,,,,,,,,,,,,,,,,,,1770.673859499977,1770.673859499977,1770.673859499977,1770.673859499977,1770.673859499977,1770.673859499977,1780.3887610000093,5.0,9.708378299954347,space,2.4287876000162214,,,,,,,,,,,,1,D,2023-12-05_08h30.18.539,gca_avoidance_task,2022.2.4,143.97189665949756,
positions.xlsx,stimuli.xlsx,stimuli/Social2.png,stimuli/Social1.png,stimuli/Nonsocial2.png,stimuli/Nonsocial1.png,cs_plus_ns,,,,,,,0,0,0,0,,,,,,,,,,,,,0,1,1,1,,,,,,,,,,,,,,,,,,,,,,,,,,,,,,,,,,,,,,,,,,,1787.5065436000004,1787.5065436000004,1790.2772809999296,4.0,2.750579599989578,space,1.1315296998945996,,,,,,,,,,,,,,,,,,,,,,,,,,,,,,,,,,,,,,,,,,,,,,,,,,,,,,,,,,1,D,2023-12-05_08h30.18.539,gca_avoidance_task,2022.2.4,143.97189665949756,
positions.xlsx,stimuli.xlsx,stimuli/Social2.png,stimuli/Social1.png,stimuli/Nonsocial2.png,stimuli/Nonsocial1.png,cs_minus_ns,,,,,,,0,0,0,0,,,,,,,,,,,,,0,2,2,3,,,,,,,,,,,,,,,,,,,,,,,,,,,,,,,,,,,,,,,,,,,1791.4508202999132,1791.4508202999132,1794.1798659999622,6.0,2.722174800001085,space,2.12464969989378,,,,,,,,,,,,,,,,,,,,,,,,,,,,,,,,,,,,,,,,,,,,,,,,,,,,,,,,,,1,D,2023-12-05_08h30.18.539,gca_avoidance_task,2022.2.4,143.97189665949756,
positions.xlsx,stimuli.xlsx,stimuli/Social2.png,stimuli/Social1.png,stimuli/Nonsocial2.png,stimuli/Nonsocial1.png,cs_plus_s,,,,,,,0,0,0,0,,,,,,,,,,,,,0,3,3,0,,,,,,,,,,,,,,,,,,,,,,,,,,,,,,,,,,,,,,,,,,,1796.332560800016,1796.332560800016,1798.9574427999323,1.0,2.6121041999431327,space,1.0840446000220254,,,,,,,,,,,,,,,,,,,,,,,,,,,,,,,,,,,,,,,,,,,,,,,,,,,,,,,,,,1,D,2023-12-05_08h30.18.539,gca_avoidance_task,2022.2.4,143.97189665949756,
positions.xlsx,stimuli.xlsx,stimuli/Social2.png,stimuli/Social1.png,stimuli/Nonsocial2.png,stimuli/Nonsocial1.png,cs_minus_s,,,,,,,0,0,0,0,,,,,,,,,,,,,,,,,0,0,0,2,,,,,,,,,,,,,,,,,,,,,,,,,,,,,,,,,,,,,,,,,,,,,,,,,,,,1802.9850627999986,,,,,,,,,,,,,,,,,,,,,1813.9846320999786,1817.7483905999688,,,,,,,,,,,,,,,,,,1800.068541500019,1800.068541500019,space,2.396142299985513,1803.4989214999368,1803.4989214999368,0.021451300010085106,0.027040600078180432,6,"[0.022269000066444278, 3.617872799979523, 4.7011400000192225, 5.853810200002044, 7.853851200081408, 8.464814800070599]","[3.4857131000608206, 4.5204586000181735, 5.548315200023353, 7.5622888000216335, 8.31883550004568, 9.999534500064328]",1,D,2023-12-05_08h30.18.539,gca_avoidance_task,2022.2.4,143.97189665949756,
positions.xlsx,stimuli.xlsx,stimuli/Social2.png,stimuli/Social1.png,stimuli/Nonsocial2.png,stimuli/Nonsocial1.png,cs_plus_s,,,,,,,0,0,0,0,,,,,,,,,,,,,,,,,0,1,1,0,,,,,,,,,,,,,,,,,,,,,,,,,,,,,,,,,,,,,,,,,,,,,,,,,,,,1817.7483905999688,,,,,,,,,,,,,,,,,,,,,1828.7548428999726,1833.2546822999138,,,,,,,,,,,,,,,,,,,,,,1818.262182699982,1818.262182699982,0.012575200060382485,0.020496300072409213,5,"[0.15318340004887432, 0.4310279000783339, 0.4447968000313267, 4.541859499993734, 7.263864300097339]","[0.3268831000896171, 0.4376358001027256, 4.3613195000216365, 7.13178880000487, 9.999904400086962]",1,D,2023-12-05_08h30.18.539,gca_avoidance_task,2022.2.4,143.97189665949756,
positions.xlsx,stimuli.xlsx,stimuli/Social2.png,stimuli/Social1.png,stimuli/Nonsocial2.png,stimuli/Nonsocial1.png,cs_plus_ns,,,,,,,0,0,0,0,,,,,,,,,,,,,,,,,0,2,2,1,,,,,,,,,,,,,,,,,,,,,,,,,,,,,,,,,,,,,,,,,,,,,,,,,,,,1833.2546822999138,,,,,,,,,,,,,,,,,,,,,1844.2612109999172,1848.1707494999282,,,,,,,,,,,,,,,,,,,,,,1833.7685209999327,1833.7685209999327,0.013020700076594949,0.020473900018259883,4,"[0.17398940003477037, 6.062548200017773, 7.659686400089413, 8.784663600032218]","[5.166811700095423, 7.54844280006364, 8.534726000041701, 9.9999312000582]",1,D,2023-12-05_08h30.18.539,gca_avoidance_task,2022.2.4,143.97189665949756,
positions.xlsx,stimuli.xlsx,stimuli/Social2.png,stimuli/Social1.png,stimuli/Nonsocial2.png,stimuli/Nonsocial1.png,cs_minus_ns,,,,,,,0,0,0,0,,,,,,,,,,,,,,,,,0,3,3,3,,,,,,,,,,,,,,,,,,,,,,,,,,,,,,,,,,,,,,,,,,,,,,,,,,,,1848.1707494999282,,,,,,,,,,,,,,,,,,,,,1859.1772484999383,1862.7187339999946,,,,,,,,,,,,,,,,,,,,,,1848.6845267999452,1848.6845267999452,0.013942199992015958,0.02053909993264824,13,"[0.014742900035344064, 0.24345569999422878, 4.229434599983506, 4.257231800002046, 6.388944300008006, 6.930693199974485, 7.66671859996859, 7.951441299985163, 8.389056099927984, 9.18752139993012, 9.201374399941415, 9.763913300004788, 9.99314759997651]","[0.035274900030344725, 3.9723544999724254, 4.243292200029828, 5.9929614999564365, 6.743036299943924, 6.97922620002646, 7.812455500010401, 8.118067899951711, 9.048377800034359, 9.194571199943312, 9.472451200010255, 9.867827099980786, 10.000072799972259]",1,D,2023-12-05_08h30.18.539,gca_avoidance_task,2022.2.4,143.97189665949756,
