posFile,stimFile,cs_plus_s,cs_minus_s,cs_plus_ns,cs_minus_ns,stimtype,position,trialtype,trials_threshold.thisRepN,trials_threshold.thisTrialN,trials_threshold.thisN,trials_threshold.thisIndex,blocks.thisRepN,blocks.thisTrialN,blocks.thisN,blocks.thisIndex,ratingtrials1.thisRepN,ratingtrials1.thisTrialN,ratingtrials1.thisN,ratingtrials1.thisIndex,learning_trials.thisRepN,learning_trials.thisTrialN,learning_trials.thisN,learning_trials.thisIndex,trials.thisRepN,trials.thisTrialN,trials.thisN,trials.thisIndex,ratingtrials2.thisRepN,ratingtrials2.thisTrialN,ratingtrials2.thisN,ratingtrials2.thisIndex,testtrials.thisRepN,testtrials.thisTrialN,testtrials.thisN,testtrials.thisIndex,ratingtrials3.thisRepN,ratingtrials3.thisTrialN,ratingtrials3.thisN,ratingtrials3.thisIndex,textStart.started,sliderPainT.response,sliderPainT.rt,textStartExp.started,imageRating.started,sliderStim.response,sliderStim.rt,textStartTask.started,image.started,score,outcome,roi.numLooks,roi.timesOn,roi.timesOff,imageFeedback.started,sliderPain.response,sliderPain.rt,textTestInstr.started,imageTest.started,roiTest.numLooks,roiTest.timesOn,roiTest.timesOff,participant,group,date,expName,psychopyVersion,frameRate,
,,,,,,,,,0,0,0,0,,,,,,,,,,,,,,,,,,,,,,,,,,,,,18.829551699920557,None,None,,,,,,,,,,,,,,,,,,,,31,D,2023-12-15_09h14.55.456,gca_avoidance_task,2022.2.4,143.92071702188983,
,,,,,,,,,1,0,1,0,,,,,,,,,,,,,,,,,,,,,,,,,,,,,,0.0,14.842373699997552,,,,,,,,,,,,,,,,,,,,31,D,2023-12-15_09h14.55.456,gca_avoidance_task,2022.2.4,143.92071702188983,
,,,,,,,,,2,0,2,0,,,,,,,,,,,,,,,,,,,,,,,,,,,,,,1.0,4.860301099950448,,,,,,,,,,,,,,,,,,,,31,D,2023-12-15_09h14.55.456,gca_avoidance_task,2022.2.4,143.92071702188983,
,,,,,,,,,3,0,3,0,,,,,,,,,,,,,,,,,,,,,,,,,,,,,,1.0,1.6919615999795496,,,,,,,,,,,,,,,,,,,,31,D,2023-12-15_09h14.55.456,gca_avoidance_task,2022.2.4,143.92071702188983,
,,,,,,,,,4,0,4,0,,,,,,,,,,,,,,,,,,,,,,,,,,,,,,2.0,4.373301599989645,,,,,,,,,,,,,,,,,,,,31,D,2023-12-15_09h14.55.456,gca_avoidance_task,2022.2.4,143.92071702188983,
,,,,,,,,,5,0,5,0,,,,,,,,,,,,,,,,,,,,,,,,,,,,,,2.0,1.3399424999952316,,,,,,,,,,,,,,,,,,,,31,D,2023-12-15_09h14.55.456,gca_avoidance_task,2022.2.4,143.92071702188983,
,,,,,,,,,6,0,6,0,,,,,,,,,,,,,,,,,,,,,,,,,,,,,,2.0,4.127950399997644,,,,,,,,,,,,,,,,,,,,31,D,2023-12-15_09h14.55.456,gca_avoidance_task,2022.2.4,143.92071702188983,
,,,,,,,,,7,0,7,0,,,,,,,,,,,,,,,,,,,,,,,,,,,,,,3.0,1.4006998999975622,,,,,,,,,,,,,,,,,,,,31,D,2023-12-15_09h14.55.456,gca_avoidance_task,2022.2.4,143.92071702188983,
,,,,,,,,,8,0,8,0,,,,,,,,,,,,,,,,,,,,,,,,,,,,,,3.0,0.7715015000430867,,,,,,,,,,,,,,,,,,,,31,D,2023-12-15_09h14.55.456,gca_avoidance_task,2022.2.4,143.92071702188983,
,,,,,,,,,9,0,9,0,,,,,,,,,,,,,,,,,,,,,,,,,,,,,,3.0,1.3584492000518367,,,,,,,,,,,,,,,,,,,,31,D,2023-12-15_09h14.55.456,gca_avoidance_task,2022.2.4,143.92071702188983,
,,,,,,,,,10,0,10,0,,,,,,,,,,,,,,,,,,,,,,,,,,,,,,3.0,2.539440199965611,,,,,,,,,,,,,,,,,,,,31,D,2023-12-15_09h14.55.456,gca_avoidance_task,2022.2.4,143.92071702188983,
,,,,,,,,,11,0,11,0,,,,,,,,,,,,,,,,,,,,,,,,,,,,,,3.0,1.016852300032042,,,,,,,,,,,,,,,,,,,,31,D,2023-12-15_09h14.55.456,gca_avoidance_task,2022.2.4,143.92071702188983,
,,,,,,,,,12,0,12,0,,,,,,,,,,,,,,,,,,,,,,,,,,,,,,3.0,1.390136200003326,,,,,,,,,,,,,,,,,,,,31,D,2023-12-15_09h14.55.456,gca_avoidance_task,2022.2.4,143.92071702188983,
,,,,,,,,,13,0,13,0,,,,,,,,,,,,,,,,,,,,,,,,,,,,,,3.0,5.903838100028224,,,,,,,,,,,,,,,,,,,,31,D,2023-12-15_09h14.55.456,gca_avoidance_task,2022.2.4,143.92071702188983,
,,,,,,,,,14,0,14,0,,,,,,,,,,,,,,,,,,,,,,,,,,,,,,3.0,4.984882300021127,,,,,,,,,,,,,,,,,,,,31,D,2023-12-15_09h14.55.456,gca_avoidance_task,2022.2.4,143.92071702188983,
,,,,,,,,,15,0,15,0,,,,,,,,,,,,,,,,,,,,,,,,,,,,,,3.0,0.9467741999542341,,,,,,,,,,,,,,,,,,,,31,D,2023-12-15_09h14.55.456,gca_avoidance_task,2022.2.4,143.92071702188983,
,,,,,,,,,16,0,16,0,,,,,,,,,,,,,,,,,,,,,,,,,,,,,,3.0,1.1980496000032872,,,,,,,,,,,,,,,,,,,,31,D,2023-12-15_09h14.55.456,gca_avoidance_task,2022.2.4,143.92071702188983,
,,,,,,,,,17,0,17,0,,,,,,,,,,,,,,,,,,,,,,,,,,,,,,4.0,1.3380409999517724,,,,,,,,,,,,,,,,,,,,31,D,2023-12-15_09h14.55.456,gca_avoidance_task,2022.2.4,143.92071702188983,
,,,,,,,,,18,0,18,0,,,,,,,,,,,,,,,,,,,,,,,,,,,,,,4.0,1.51188440003898,,,,,,,,,,,,,,,,,,,,31,D,2023-12-15_09h14.55.456,gca_avoidance_task,2022.2.4,143.92071702188983,
,,,,,,,,,19,0,19,0,,,,,,,,,,,,,,,,,,,,,,,,,,,,,,4.0,1.1586826000129804,,,,,,,,,,,,,,,,,,,,31,D,2023-12-15_09h14.55.456,gca_avoidance_task,2022.2.4,143.92071702188983,
,,,,,,,,,20,0,20,0,,,,,,,,,,,,,,,,,,,,,,,,,,,,,,4.0,1.3367002999875695,,,,,,,,,,,,,,,,,,,,31,D,2023-12-15_09h14.55.456,gca_avoidance_task,2022.2.4,143.92071702188983,
,,,,,,,,,21,0,21,0,,,,,,,,,,,,,,,,,,,,,,,,,,,,,,4.0,3.7825092000421137,,,,,,,,,,,,,,,,,,,,31,D,2023-12-15_09h14.55.456,gca_avoidance_task,2022.2.4,143.92071702188983,
,,,,,,,,,22,0,22,0,,,,,,,,,,,,,,,,,,,,,,,,,,,,,,4.0,1.2354942000238225,,,,,,,,,,,,,,,,,,,,31,D,2023-12-15_09h14.55.456,gca_avoidance_task,2022.2.4,143.92071702188983,
,,,,,,,,,23,0,23,0,,,,,,,,,,,,,,,,,,,,,,,,,,,,,,4.0,6.415766500052996,,,,,,,,,,,,,,,,,,,,31,D,2023-12-15_09h14.55.456,gca_avoidance_task,2022.2.4,143.92071702188983,
,,,,,,,,,24,0,24,0,,,,,,,,,,,,,,,,,,,,,,,,,,,,,,5.0,0.708331499947235,,,,,,,,,,,,,,,,,,,,31,D,2023-12-15_09h14.55.456,gca_avoidance_task,2022.2.4,143.92071702188983,
,,,,,,,,,25,0,25,0,,,,,,,,,,,,,,,,,,,,,,,,,,,,,,5.0,0.5676310999551788,,,,,,,,,,,,,,,,,,,,31,D,2023-12-15_09h14.55.456,gca_avoidance_task,2022.2.4,143.92071702188983,
,,,,,,,,,26,0,26,0,,,,,,,,,,,,,,,,,,,,,,,,,,,,,,5.0,0.8582477999152616,,,,,,,,,,,,,,,,,,,,31,D,2023-12-15_09h14.55.456,gca_avoidance_task,2022.2.4,143.92071702188983,
,,,,,,,,,27,0,27,0,,,,,,,,,,,,,,,,,,,,,,,,,,,,,,5.0,3.659847700037062,,,,,,,,,,,,,,,,,,,,31,D,2023-12-15_09h14.55.456,gca_avoidance_task,2022.2.4,143.92071702188983,
,,,,,,,,,28,0,28,0,,,,,,,,,,,,,,,,,,,,,,,,,,,,,,6.0,0.7725886999396607,,,,,,,,,,,,,,,,,,,,31,D,2023-12-15_09h14.55.456,gca_avoidance_task,2022.2.4,143.92071702188983,
,,,,,,,,,29,0,29,0,,,,,,,,,,,,,,,,,,,,,,,,,,,,,,5.0,5.799289999995381,,,,,,,,,,,,,,,,,,,,31,D,2023-12-15_09h14.55.456,gca_avoidance_task,2022.2.4,143.92071702188983,
,,,,,,,,,30,0,30,0,,,,,,,,,,,,,,,,,,,,,,,,,,,,,,6.0,1.361800599959679,,,,,,,,,,,,,,,,,,,,31,D,2023-12-15_09h14.55.456,gca_avoidance_task,2022.2.4,143.92071702188983,
,,,,,,,,,31,0,31,0,,,,,,,,,,,,,,,,,,,,,,,,,,,,,,6.0,2.473609499982558,,,,,,,,,,,,,,,,,,,,31,D,2023-12-15_09h14.55.456,gca_avoidance_task,2022.2.4,143.92071702188983,
,,,,,,,,,32,0,32,0,,,,,,,,,,,,,,,,,,,,,,,,,,,,,,7.0,1.8747106000082567,,,,,,,,,,,,,,,,,,,,31,D,2023-12-15_09h14.55.456,gca_avoidance_task,2022.2.4,143.92071702188983,
,,,,,,,,,33,0,33,0,,,,,,,,,,,,,,,,,,,,,,,,,,,,,,7.0,1.1924268000293523,,,,,,,,,,,,,,,,,,,,31,D,2023-12-15_09h14.55.456,gca_avoidance_task,2022.2.4,143.92071702188983,
,,,,,,,,,34,0,34,0,,,,,,,,,,,,,,,,,,,,,,,,,,,,,,7.0,1.8759187000105157,,,,,,,,,,,,,,,,,,,,31,D,2023-12-15_09h14.55.456,gca_avoidance_task,2022.2.4,143.92071702188983,
,,,,,,,,,35,0,35,0,,,,,,,,,,,,,,,,,,,,,,,,,,,,,,6.0,3.6690152999944985,,,,,,,,,,,,,,,,,,,,31,D,2023-12-15_09h14.55.456,gca_avoidance_task,2022.2.4,143.92071702188983,
positions.xlsx,stimuli.xlsx,stimuli/Social2.png,stimuli/Social1.png,stimuli/Nonsocial2.png,stimuli/Nonsocial1.png,cs_plus_ns,,,,,,,0,0,0,0,0,0,0,1,,,,,,,,,,,,,,,,,,,,,,,,639.068752799998,687.5182315999409,9.0,15.021959899924695,,,,,,,,,,,,,,,,31,D,2023-12-15_09h14.55.456,gca_avoidance_task,2022.2.4,143.92071702188983,
positions.xlsx,stimuli.xlsx,stimuli/Social2.png,stimuli/Social1.png,stimuli/Nonsocial2.png,stimuli/Nonsocial1.png,cs_minus_s,,,,,,,0,0,0,0,0,1,1,2,,,,,,,,,,,,,,,,,,,,,,,,,704.1842627000296,9.0,6.469317500013858,,,,,,,,,,,,,,,,31,D,2023-12-15_09h14.55.456,gca_avoidance_task,2022.2.4,143.92071702188983,
positions.xlsx,stimuli.xlsx,stimuli/Social2.png,stimuli/Social1.png,stimuli/Nonsocial2.png,stimuli/Nonsocial1.png,cs_plus_s,,,,,,,0,0,0,0,0,2,2,0,,,,,,,,,,,,,,,,,,,,,,,,,712.197808100027,9.0,3.8793046000646427,,,,,,,,,,,,,,,,31,D,2023-12-15_09h14.55.456,gca_avoidance_task,2022.2.4,143.92071702188983,
positions.xlsx,stimuli.xlsx,stimuli/Social2.png,stimuli/Social1.png,stimuli/Nonsocial2.png,stimuli/Nonsocial1.png,cs_minus_ns,,,,,,,0,0,0,0,0,3,3,3,,,,,,,,,,,,,,,,,,,,,,,,,717.1281612999737,10.0,9.760847600060515,,,,,,,,,,,,,,,,31,D,2023-12-15_09h14.55.456,gca_avoidance_task,2022.2.4,143.92071702188983,
positions.xlsx,stimuli.xlsx,stimuli/Social2.png,stimuli/Social1.png,stimuli/Nonsocial2.png,stimuli/Nonsocial1.png,,"(-0.7, 0.5)",cs_minus_s,,,,,0,0,0,0,,,,,0,0,0,4,,,,,,,,,,,,,,,,,,,,,,,,727.995742399944,766.3831632999936,5,reward,1,0.19482510001398623,0.19482880004215986,766.591459200019,,,,,,,,31,D,2023-12-15_09h14.55.456,gca_avoidance_task,2022.2.4,143.92071702188983,
positions.xlsx,stimuli.xlsx,stimuli/Social2.png,stimuli/Social1.png,stimuli/Nonsocial2.png,stimuli/Nonsocial1.png,,"(-0.7, 0.5)",cs_minus_ns,,,,,0,0,0,0,,,,,0,1,1,12,,,,,,,,,,,,,,,,,,,,,,,,,776.3063280000351,10,reward,1,0.3333695000037551,0.3333730000304058,776.646648599999,,,,,,,,31,D,2023-12-15_09h14.55.456,gca_avoidance_task,2022.2.4,143.92071702188983,
positions.xlsx,stimuli.xlsx,stimuli/Social2.png,stimuli/Social1.png,stimuli/Nonsocial2.png,stimuli/Nonsocial1.png,,"(0.7, -0.5)",cs_minus_s,,,,,0,0,0,0,,,,,0,2,2,7,,,,,,,,,,,,,,,,,,,,,,,,,786.0420791000361,15,reward,1,0.20868340006563812,0.20868699997663498,786.2573942999588,,,,,,,,31,D,2023-12-15_09h14.55.456,gca_avoidance_task,2022.2.4,143.92071702188983,
positions.xlsx,stimuli.xlsx,stimuli/Social2.png,stimuli/Social1.png,stimuli/Nonsocial2.png,stimuli/Nonsocial1.png,,"(0.7, 0.5)",cs_minus_s,,,,,0,0,0,0,,,,,0,3,3,6,,,,,,,,,,,,,,,,,,,,,,,,,795.8194777999306,20,reward,1,0.4446076999884099,0.44461129989940673,796.2708486999618,,,,,,,,31,D,2023-12-15_09h14.55.456,gca_avoidance_task,2022.2.4,143.92071702188983,
positions.xlsx,stimuli.xlsx,stimuli/Social2.png,stimuli/Social1.png,stimuli/Nonsocial2.png,stimuli/Nonsocial1.png,,"(0.7, -0.5)",cs_minus_ns,,,,,0,0,0,0,,,,,0,4,4,15,,,,,,,,,,,,,,,,,,,,,,,,,806.2634947999613,25,reward,1,0.20161290001124144,0.20865350007079542,806.4787996999221,,,,,,,,31,D,2023-12-15_09h14.55.456,gca_avoidance_task,2022.2.4,143.92071702188983,
positions.xlsx,stimuli.xlsx,stimuli/Social2.png,stimuli/Social1.png,stimuli/Nonsocial2.png,stimuli/Nonsocial1.png,,"(-0.7, 0.5)",cs_plus_ns,,,,,0,0,0,0,,,,,0,5,5,8,,,,,,,,,,,,,,,,,,,,,,,,,816.1519998000003,25,shock,1,0.2153738000197336,0.21537760004866868,816.3742215000093,,,,,,,,31,D,2023-12-15_09h14.55.456,gca_avoidance_task,2022.2.4,143.92071702188983,
positions.xlsx,stimuli.xlsx,stimuli/Social2.png,stimuli/Social1.png,stimuli/Nonsocial2.png,stimuli/Nonsocial1.png,,"(-0.7, 0.5)",cs_plus_s,,,,,0,0,0,0,,,,,0,6,6,0,,,,,,,,,,,,,,,,,,,,,,,,,826.0752456999617,25,shock,1,0.4586896999971941,0.45869320002384484,826.540470500011,,,,,,,,31,D,2023-12-15_09h14.55.456,gca_avoidance_task,2022.2.4,143.92071702188983,
positions.xlsx,stimuli.xlsx,stimuli/Social2.png,stimuli/Social1.png,stimuli/Nonsocial2.png,stimuli/Nonsocial1.png,,"(0.7, 0.5)",cs_plus_s,,,,,0,0,0,0,,,,,0,7,7,2,,,,,,,,,,,,,,,,,,,,,,,,,836.1025938999373,25,shock,1,0.22934590000659227,0.22934970003552735,836.3317498000106,,,,,,,,31,D,2023-12-15_09h14.55.456,gca_avoidance_task,2022.2.4,143.92071702188983,
positions.xlsx,stimuli.xlsx,stimuli/Social2.png,stimuli/Social1.png,stimuli/Nonsocial2.png,stimuli/Nonsocial1.png,,"(-0.7, -0.5)",cs_plus_s,,,,,0,0,0,0,,,,,0,8,8,1,,,,,,,,,,,,,,,,,,,,,,,,,846.0119374999776,25,none,0,,,851.0187345999293,,,,,,,,31,D,2023-12-15_09h14.55.456,gca_avoidance_task,2022.2.4,143.92071702188983,
positions.xlsx,stimuli.xlsx,stimuli/Social2.png,stimuli/Social1.png,stimuli/Nonsocial2.png,stimuli/Nonsocial1.png,,"(-0.7, -0.5)",cs_minus_ns,,,,,0,0,0,0,,,,,0,9,9,13,,,,,,,,,,,,,,,,,,,,,,,,,860.7613535999553,30,reward,1,0.3819088999880478,0.38192509999498725,861.1502156000352,,,,,,,,31,D,2023-12-15_09h14.55.456,gca_avoidance_task,2022.2.4,143.92071702188983,
positions.xlsx,stimuli.xlsx,stimuli/Social2.png,stimuli/Social1.png,stimuli/Nonsocial2.png,stimuli/Nonsocial1.png,,"(0.7, -0.5)",cs_plus_ns,,,,,0,0,0,0,,,,,0,10,10,11,,,,,,,,,,,,,,,,,,,,,,,,,870.5248757000081,30,shock,1,0.4654337000101805,0.4654374000383541,870.9970599999651,,,,,,,,31,D,2023-12-15_09h14.55.456,gca_avoidance_task,2022.2.4,143.92071702188983,
positions.xlsx,stimuli.xlsx,stimuli/Social2.png,stimuli/Social1.png,stimuli/Nonsocial2.png,stimuli/Nonsocial1.png,,"(0.7, 0.5)",cs_minus_ns,,,,,0,0,0,0,,,,,0,11,11,14,,,,,,,,,,,,,,,,,,,,,,,,,880.9619279999752,35,reward,1,0.493108999915421,0.49311249994207174,881.4619357000338,,,,,,,,31,D,2023-12-15_09h14.55.456,gca_avoidance_task,2022.2.4,143.92071702188983,
positions.xlsx,stimuli.xlsx,stimuli/Social2.png,stimuli/Social1.png,stimuli/Nonsocial2.png,stimuli/Nonsocial1.png,,"(0.7, 0.5)",cs_plus_ns,,,,,0,0,0,0,,,,,0,12,12,10,,,,,,,,,,,,,,,,,,,,,,,,,891.3157076999778,35,none,0,,,896.3224348999793,,,,,,,,31,D,2023-12-15_09h14.55.456,gca_avoidance_task,2022.2.4,143.92071702188983,
positions.xlsx,stimuli.xlsx,stimuli/Social2.png,stimuli/Social1.png,stimuli/Nonsocial2.png,stimuli/Nonsocial1.png,,"(-0.7, -0.5)",cs_minus_s,,,,,0,0,0,0,,,,,0,13,13,5,,,,,,,,,,,,,,,,,,,,,,,,,905.9678867999464,40,reward,1,0.6321237001102418,0.6321303000440821,906.6067482000217,,,,,,,,31,D,2023-12-15_09h14.55.456,gca_avoidance_task,2022.2.4,143.92071702188983,
positions.xlsx,stimuli.xlsx,stimuli/Social2.png,stimuli/Social1.png,stimuli/Nonsocial2.png,stimuli/Nonsocial1.png,,"(-0.7, -0.5)",cs_plus_ns,,,,,0,0,0,0,,,,,0,14,14,9,,,,,,,,,,,,,,,,,,,,,,,,,916.6688699999359,40,none,0,,,921.6825860999525,,,,,,,,31,D,2023-12-15_09h14.55.456,gca_avoidance_task,2022.2.4,143.92071702188983,
positions.xlsx,stimuli.xlsx,stimuli/Social2.png,stimuli/Social1.png,stimuli/Nonsocial2.png,stimuli/Nonsocial1.png,,"(0.7, -0.5)",cs_plus_s,,,,,0,0,0,0,,,,,0,15,15,3,,,,,,,,,,,,,,,,,,,,,,,,,931.244691299973,40,shock,1,0.20813609997276217,0.20813990000169724,931.4529834999703,,,,,,,,31,D,2023-12-15_09h14.55.456,gca_avoidance_task,2022.2.4,143.92071702188983,
positions.xlsx,stimuli.xlsx,stimuli/Social2.png,stimuli/Social1.png,stimuli/Nonsocial2.png,stimuli/Nonsocial1.png,,"(0.7, 0.5)",cs_minus_s,,,,,0,0,0,0,,,,,1,0,16,6,,,,,,,,,,,,,,,,,,,,,,,,,941.5984162000241,45,reward,1,0.5490311000030488,0.549034700030461,942.1539854999864,,,,,,,,31,D,2023-12-15_09h14.55.456,gca_avoidance_task,2022.2.4,143.92071702188983,
positions.xlsx,stimuli.xlsx,stimuli/Social2.png,stimuli/Social1.png,stimuli/Nonsocial2.png,stimuli/Nonsocial1.png,,"(-0.7, -0.5)",cs_minus_ns,,,,,0,0,0,0,,,,,1,1,17,13,,,,,,,,,,,,,,,,,,,,,,,,,951.9869103999808,50,reward,1,1.1254103999817744,1.1254140000091866,953.1188491999637,,,,,,,,31,D,2023-12-15_09h14.55.456,gca_avoidance_task,2022.2.4,143.92071702188983,
positions.xlsx,stimuli.xlsx,stimuli/Social2.png,stimuli/Social1.png,stimuli/Nonsocial2.png,stimuli/Nonsocial1.png,,"(-0.7, 0.5)",cs_minus_s,,,,,0,0,0,0,,,,,1,2,18,4,,,,,,,,,,,,,,,,,,,,,,,,,962.4656614999985,55,reward,1,0.5764321000315249,0.5764358000596985,963.0489637999563,,,,,,,,31,D,2023-12-15_09h14.55.456,gca_avoidance_task,2022.2.4,143.92071702188983,
positions.xlsx,stimuli.xlsx,stimuli/Social2.png,stimuli/Social1.png,stimuli/Nonsocial2.png,stimuli/Nonsocial1.png,,"(-0.7, 0.5)",cs_plus_ns,,,,,0,0,0,0,,,,,1,3,19,8,,,,,,,,,,,,,,,,,,,,,,,,,972.4027748999652,55,none,0,,,977.4164570999565,,,,,,,,31,D,2023-12-15_09h14.55.456,gca_avoidance_task,2022.2.4,143.92071702188983,
positions.xlsx,stimuli.xlsx,stimuli/Social2.png,stimuli/Social1.png,stimuli/Nonsocial2.png,stimuli/Nonsocial1.png,,"(-0.7, -0.5)",cs_plus_ns,,,,,0,0,0,0,,,,,1,4,20,9,,,,,,,,,,,,,,,,,,,,,,,,,987.068839399959,55,none,0,,,992.075623499928,,,,,,,,31,D,2023-12-15_09h14.55.456,gca_avoidance_task,2022.2.4,143.92071702188983,
positions.xlsx,stimuli.xlsx,stimuli/Social2.png,stimuli/Social1.png,stimuli/Nonsocial2.png,stimuli/Nonsocial1.png,,"(0.7, -0.5)",cs_minus_s,,,,,0,0,0,0,,,,,1,5,21,7,,,,,,,,,,,,,,,,,,,,,,,,,1001.3530113999732,60,reward,1,0.5766723999986425,0.5766760999104008,1001.9363574000308,,,,,,,,31,D,2023-12-15_09h14.55.456,gca_avoidance_task,2022.2.4,143.92071702188983,
positions.xlsx,stimuli.xlsx,stimuli/Social2.png,stimuli/Social1.png,stimuli/Nonsocial2.png,stimuli/Nonsocial1.png,,"(0.7, -0.5)",cs_plus_s,,,,,0,0,0,0,,,,,1,6,22,3,,,,,,,,,,,,,,,,,,,,,,,,,1011.0609472999349,60,none,0,,,1016.0746721000178,,,,,,,,31,D,2023-12-15_09h14.55.456,gca_avoidance_task,2022.2.4,143.92071702188983,
positions.xlsx,stimuli.xlsx,stimuli/Social2.png,stimuli/Social1.png,stimuli/Nonsocial2.png,stimuli/Nonsocial1.png,,"(-0.7, 0.5)",cs_minus_ns,,,,,0,0,0,0,,,,,1,7,23,12,,,,,,,,,,,,,,,,,,,,,,,,,1026.081195799983,65,reward,1,1.09056529996451,1.0975195999490097,1027.1853960999288,,,,,,,,31,D,2023-12-15_09h14.55.456,gca_avoidance_task,2022.2.4,143.92071702188983,
positions.xlsx,stimuli.xlsx,stimuli/Social2.png,stimuli/Social1.png,stimuli/Nonsocial2.png,stimuli/Nonsocial1.png,,"(-0.7, -0.5)",cs_plus_s,,,,,0,0,0,0,,,,,1,8,24,1,,,,,,,,,,,,,,,,,,,,,,,,,1036.1225148999365,65,none,0,,,1041.1292384000262,,,,,,,,31,D,2023-12-15_09h14.55.456,gca_avoidance_task,2022.2.4,143.92071702188983,
positions.xlsx,stimuli.xlsx,stimuli/Social2.png,stimuli/Social1.png,stimuli/Nonsocial2.png,stimuli/Nonsocial1.png,,"(0.7, 0.5)",cs_plus_ns,,,,,0,0,0,0,,,,,1,9,25,10,,,,,,,,,,,,,,,,,,,,,,,,,1050.4969451000215,65,shock,1,0.5694597999099642,0.5694632999366149,1051.0732917999849,,,,,,,,31,D,2023-12-15_09h14.55.456,gca_avoidance_task,2022.2.4,143.92071702188983,
positions.xlsx,stimuli.xlsx,stimuli/Social2.png,stimuli/Social1.png,stimuli/Nonsocial2.png,stimuli/Nonsocial1.png,,"(0.7, -0.5)",cs_minus_ns,,,,,0,0,0,0,,,,,1,10,26,15,,,,,,,,,,,,,,,,,,,,,,,,,1060.5729065999622,70,reward,1,0.5694236000999808,0.5694304000353441,1061.1492658000207,,,,,,,,31,D,2023-12-15_09h14.55.456,gca_avoidance_task,2022.2.4,143.92071702188983,
positions.xlsx,stimuli.xlsx,stimuli/Social2.png,stimuli/Social1.png,stimuli/Nonsocial2.png,stimuli/Nonsocial1.png,,"(0.7, 0.5)",cs_plus_s,,,,,0,0,0,0,,,,,1,11,27,2,,,,,,,,,,,,,,,,,,,,,,,,,1071.0447422999423,70,none,0,,,1076.051522099995,,,,,,,,31,D,2023-12-15_09h14.55.456,gca_avoidance_task,2022.2.4,143.92071702188983,
positions.xlsx,stimuli.xlsx,stimuli/Social2.png,stimuli/Social1.png,stimuli/Nonsocial2.png,stimuli/Nonsocial1.png,,"(-0.7, -0.5)",cs_minus_s,,,,,0,0,0,0,,,,,1,12,28,5,,,,,,,,,,,,,,,,,,,,,,,,,1085.2941610999405,75,reward,1,0.6393038999522105,0.6393074999796227,1085.939960299991,,,,,,,,31,D,2023-12-15_09h14.55.456,gca_avoidance_task,2022.2.4,143.92071702188983,
positions.xlsx,stimuli.xlsx,stimuli/Social2.png,stimuli/Social1.png,stimuli/Nonsocial2.png,stimuli/Nonsocial1.png,,"(0.7, 0.5)",cs_minus_ns,,,,,0,0,0,0,,,,,1,13,29,14,,,,,,,,,,,,,,,,,,,,,,,,,1094.6618581999792,80,reward,1,0.8823276999173686,0.8823312999447808,1095.5507186999312,,,,,,,,31,D,2023-12-15_09h14.55.456,gca_avoidance_task,2022.2.4,143.92071702188983,
positions.xlsx,stimuli.xlsx,stimuli/Social2.png,stimuli/Social1.png,stimuli/Nonsocial2.png,stimuli/Nonsocial1.png,,"(-0.7, 0.5)",cs_plus_s,,,,,0,0,0,0,,,,,1,14,30,0,,,,,,,,,,,,,,,,,,,,,,,,,1105.8003482000204,80,none,0,,,1110.8140427999897,,,,,,,,31,D,2023-12-15_09h14.55.456,gca_avoidance_task,2022.2.4,143.92071702188983,
positions.xlsx,stimuli.xlsx,stimuli/Social2.png,stimuli/Social1.png,stimuli/Nonsocial2.png,stimuli/Nonsocial1.png,,"(0.7, -0.5)",cs_plus_ns,,,,,0,0,0,0,,,,,1,15,31,11,,,,,,,,,,,,,,,,,,,,,,,,,1120.792767399922,80,none,0,,,1125.7995289999526,,,,,,,,31,D,2023-12-15_09h14.55.456,gca_avoidance_task,2022.2.4,143.92071702188983,
positions.xlsx,stimuli.xlsx,stimuli/Social2.png,stimuli/Social1.png,stimuli/Nonsocial2.png,stimuli/Nonsocial1.png,,"(-0.7, -0.5)",cs_minus_s,,,,,0,0,0,0,,,,,,,,,0,0,0,5,,,,,,,,,,,,,,,,,,,,,1158.902363799978,85,reward,1,0.4306229999056086,0.43062659993302077,1159.3398652999895,,,,,,,,31,D,2023-12-15_09h14.55.456,gca_avoidance_task,2022.2.4,143.92071702188983,
positions.xlsx,stimuli.xlsx,stimuli/Social2.png,stimuli/Social1.png,stimuli/Nonsocial2.png,stimuli/Nonsocial1.png,,"(0.7, -0.5)",cs_plus_ns,,,,,0,0,0,0,,,,,,,,,0,1,1,11,,,,,,,,,,,,,,,,,,,,,1169.2839138000272,85,none,0,,,1174.2906842000084,,,,,,,,31,D,2023-12-15_09h14.55.456,gca_avoidance_task,2022.2.4,143.92071702188983,
positions.xlsx,stimuli.xlsx,stimuli/Social2.png,stimuli/Social1.png,stimuli/Nonsocial2.png,stimuli/Nonsocial1.png,,"(-0.7, 0.5)",cs_minus_ns,,,,,0,0,0,0,,,,,,,,,0,2,2,12,,,,,,,,,,,,,,,,,,,,,1183.94307379995,90,reward,1,0.3474090000381693,0.34741270006634295,1184.297270799987,,,,,,,,31,D,2023-12-15_09h14.55.456,gca_avoidance_task,2022.2.4,143.92071702188983,
positions.xlsx,stimuli.xlsx,stimuli/Social2.png,stimuli/Social1.png,stimuli/Nonsocial2.png,stimuli/Nonsocial1.png,,"(-0.7, -0.5)",cs_plus_s,,,,,0,0,0,0,,,,,,,,,0,3,3,1,,,,,,,,,,,,,,,,,,,,,1194.081586199929,90,none,0,,,1199.0883486999664,,,,,,,,31,D,2023-12-15_09h14.55.456,gca_avoidance_task,2022.2.4,143.92071702188983,
positions.xlsx,stimuli.xlsx,stimuli/Social2.png,stimuli/Social1.png,stimuli/Nonsocial2.png,stimuli/Nonsocial1.png,,"(0.7, -0.5)",cs_minus_s,,,,,0,0,0,0,,,,,,,,,0,4,4,7,,,,,,,,,,,,,,,,,,,,,1209.5809655999765,95,reward,1,0.5904949000105262,0.590498499921523,1210.1781706999755,,,,,,,,31,D,2023-12-15_09h14.55.456,gca_avoidance_task,2022.2.4,143.92071702188983,
positions.xlsx,stimuli.xlsx,stimuli/Social2.png,stimuli/Social1.png,stimuli/Nonsocial2.png,stimuli/Nonsocial1.png,,"(-0.7, 0.5)",cs_plus_ns,,,,,0,0,0,0,,,,,,,,,0,5,5,8,,,,,,,,,,,,,,,,,,,,,1219.976385799935,95,none,0,,,1224.9831716000335,,,,,,,,31,D,2023-12-15_09h14.55.456,gca_avoidance_task,2022.2.4,143.92071702188983,
positions.xlsx,stimuli.xlsx,stimuli/Social2.png,stimuli/Social1.png,stimuli/Nonsocial2.png,stimuli/Nonsocial1.png,,"(-0.7, -0.5)",cs_plus_ns,,,,,0,0,0,0,,,,,,,,,0,6,6,9,,,,,,,,,,,,,,,,,,,,,1233.552218399942,95,none,0,,,1238.5590697999578,,,,,,,,31,D,2023-12-15_09h14.55.456,gca_avoidance_task,2022.2.4,143.92071702188983,
positions.xlsx,stimuli.xlsx,stimuli/Social2.png,stimuli/Social1.png,stimuli/Nonsocial2.png,stimuli/Nonsocial1.png,,"(-0.7, -0.5)",cs_minus_ns,,,,,0,0,0,0,,,,,,,,,0,7,7,13,,,,,,,,,,,,,,,,,,,,,1247.9475566999754,100,reward,1,0.5764508999418467,0.5764544999692589,1248.5308447999414,,,,,,,,31,D,2023-12-15_09h14.55.456,gca_avoidance_task,2022.2.4,143.92071702188983,
positions.xlsx,stimuli.xlsx,stimuli/Social2.png,stimuli/Social1.png,stimuli/Nonsocial2.png,stimuli/Nonsocial1.png,,"(0.7, 0.5)",cs_plus_ns,,,,,0,0,0,0,,,,,,,,,0,8,8,10,,,,,,,,,,,,,,,,,,,,,1258.1623981000157,100,none,0,,,1263.1691374999937,,,,,,,,31,D,2023-12-15_09h14.55.456,gca_avoidance_task,2022.2.4,143.92071702188983,
positions.xlsx,stimuli.xlsx,stimuli/Social2.png,stimuli/Social1.png,stimuli/Nonsocial2.png,stimuli/Nonsocial1.png,,"(0.7, -0.5)",cs_plus_s,,,,,0,0,0,0,,,,,,,,,0,9,9,3,,,,,,,,,,,,,,,,,,,,,1272.4465573999332,100,shock,1,0.5070357999065891,0.5070394999347627,1272.960466700024,,,,,,,,31,D,2023-12-15_09h14.55.456,gca_avoidance_task,2022.2.4,143.92071702188983,
positions.xlsx,stimuli.xlsx,stimuli/Social2.png,stimuli/Social1.png,stimuli/Nonsocial2.png,stimuli/Nonsocial1.png,,"(0.7, -0.5)",cs_minus_ns,,,,,0,0,0,0,,,,,,,,,0,10,10,15,,,,,,,,,,,,,,,,,,,,,1282.4670346999774,105,reward,1,0.5761412000283599,0.5761448000557721,1283.0503486000234,,,,,,,,31,D,2023-12-15_09h14.55.456,gca_avoidance_task,2022.2.4,143.92071702188983,
positions.xlsx,stimuli.xlsx,stimuli/Social2.png,stimuli/Social1.png,stimuli/Nonsocial2.png,stimuli/Nonsocial1.png,,"(0.7, 0.5)",cs_minus_s,,,,,0,0,0,0,,,,,,,,,0,11,11,6,,,,,,,,,,,,,,,,,,,,,1293.3138165000128,110,reward,1,0.45856399997137487,0.4585679000010714,1293.779099999927,,,,,,,,31,D,2023-12-15_09h14.55.456,gca_avoidance_task,2022.2.4,143.92071702188983,
positions.xlsx,stimuli.xlsx,stimuli/Social2.png,stimuli/Social1.png,stimuli/Nonsocial2.png,stimuli/Nonsocial1.png,,"(0.7, 0.5)",cs_minus_ns,,,,,0,0,0,0,,,,,,,,,0,12,12,14,,,,,,,,,,,,,,,,,,,,,1303.5634107999504,115,reward,1,0.5278956000693142,0.5278990000952035,1304.098142899922,,,,,,,,31,D,2023-12-15_09h14.55.456,gca_avoidance_task,2022.2.4,143.92071702188983,
positions.xlsx,stimuli.xlsx,stimuli/Social2.png,stimuli/Social1.png,stimuli/Nonsocial2.png,stimuli/Nonsocial1.png,,"(-0.7, 0.5)",cs_minus_s,,,,,0,0,0,0,,,,,,,,,0,13,13,4,,,,,,,,,,,,,,,,,,,,,1314.0629755000118,120,reward,1,0.4931244000326842,0.4931282000616193,1314.5629985999549,,,,,,,,31,D,2023-12-15_09h14.55.456,gca_avoidance_task,2022.2.4,143.92071702188983,
positions.xlsx,stimuli.xlsx,stimuli/Social2.png,stimuli/Social1.png,stimuli/Nonsocial2.png,stimuli/Nonsocial1.png,,"(0.7, 0.5)",cs_plus_s,,,,,0,0,0,0,,,,,,,,,0,14,14,2,,,,,,,,,,,,,,,,,,,,,1323.6112277000211,120,none,0,,,1328.6180125999963,,,,,,,,31,D,2023-12-15_09h14.55.456,gca_avoidance_task,2022.2.4,143.92071702188983,
positions.xlsx,stimuli.xlsx,stimuli/Social2.png,stimuli/Social1.png,stimuli/Nonsocial2.png,stimuli/Nonsocial1.png,,"(-0.7, 0.5)",cs_plus_s,,,,,0,0,0,0,,,,,,,,,0,15,15,0,,,,,,,,,,,,,,,,,,,,,1337.9787417999469,120,none,0,,,1342.9854782000184,,,,,,,,31,D,2023-12-15_09h14.55.456,gca_avoidance_task,2022.2.4,143.92071702188983,
positions.xlsx,stimuli.xlsx,stimuli/Social2.png,stimuli/Social1.png,stimuli/Nonsocial2.png,stimuli/Nonsocial1.png,,"(-0.7, -0.5)",cs_minus_ns,,,,,0,0,0,0,,,,,,,,,1,0,16,13,,,,,,,,,,,,,,,,,,,,,1352.4920470999787,125,reward,1,0.5489716000156477,0.5489749999251217,1353.047572499956,,,,,,,,31,D,2023-12-15_09h14.55.456,gca_avoidance_task,2022.2.4,143.92071702188983,
positions.xlsx,stimuli.xlsx,stimuli/Social2.png,stimuli/Social1.png,stimuli/Nonsocial2.png,stimuli/Nonsocial1.png,,"(0.7, 0.5)",cs_minus_ns,,,,,0,0,0,0,,,,,,,,,1,1,17,14,,,,,,,,,,,,,,,,,,,,,1362.151392400032,130,reward,1,0.5002212999388576,0.5002247999655083,1362.6583093999652,,,,,,,,31,D,2023-12-15_09h14.55.456,gca_avoidance_task,2022.2.4,143.92071702188983,
positions.xlsx,stimuli.xlsx,stimuli/Social2.png,stimuli/Social1.png,stimuli/Nonsocial2.png,stimuli/Nonsocial1.png,,"(-0.7, -0.5)",cs_plus_s,,,,,0,0,0,0,,,,,,,,,1,2,18,1,,,,,,,,,,,,,,,,,,,,,1372.4010062000016,130,none,0,,,1377.4077529000351,,,,,,,,31,D,2023-12-15_09h14.55.456,gca_avoidance_task,2022.2.4,143.92071702188983,
positions.xlsx,stimuli.xlsx,stimuli/Social2.png,stimuli/Social1.png,stimuli/Nonsocial2.png,stimuli/Nonsocial1.png,,"(0.7, -0.5)",cs_minus_ns,,,,,0,0,0,0,,,,,,,,,1,3,19,15,,,,,,,,,,,,,,,,,,,,,1387.4212215000298,135,reward,1,0.6178986000595614,0.6179021000862122,1388.0462259999476,,,,,,,,31,D,2023-12-15_09h14.55.456,gca_avoidance_task,2022.2.4,143.92071702188983,
positions.xlsx,stimuli.xlsx,stimuli/Social2.png,stimuli/Social1.png,stimuli/Nonsocial2.png,stimuli/Nonsocial1.png,,"(0.7, 0.5)",cs_plus_ns,,,,,0,0,0,0,,,,,,,,,1,4,20,10,,,,,,,,,,,,,,,,,,,,,1397.5180704999948,135,none,0,,,1402.5247954999795,,,,,,,,31,D,2023-12-15_09h14.55.456,gca_avoidance_task,2022.2.4,143.92071702188983,
positions.xlsx,stimuli.xlsx,stimuli/Social2.png,stimuli/Social1.png,stimuli/Nonsocial2.png,stimuli/Nonsocial1.png,,"(-0.7, 0.5)",cs_minus_s,,,,,0,0,0,0,,,,,,,,,1,5,21,4,,,,,,,,,,,,,,,,,,,,,1411.5730725999456,140,reward,1,0.5765750999562442,0.5765787999844179,1412.156408199924,,,,,,,,31,D,2023-12-15_09h14.55.456,gca_avoidance_task,2022.2.4,143.92071702188983,
positions.xlsx,stimuli.xlsx,stimuli/Social2.png,stimuli/Social1.png,stimuli/Nonsocial2.png,stimuli/Nonsocial1.png,,"(-0.7, -0.5)",cs_minus_s,,,,,0,0,0,0,,,,,,,,,1,6,22,5,,,,,,,,,,,,,,,,,,,,,1422.1143158000195,145,reward,1,0.49350320000667125,0.49350689991842955,1422.6143252999755,,,,,,,,31,D,2023-12-15_09h14.55.456,gca_avoidance_task,2022.2.4,143.92071702188983,
positions.xlsx,stimuli.xlsx,stimuli/Social2.png,stimuli/Social1.png,stimuli/Nonsocial2.png,stimuli/Nonsocial1.png,,"(-0.7, 0.5)",cs_plus_ns,,,,,0,0,0,0,,,,,,,,,1,7,23,8,,,,,,,,,,,,,,,,,,,,,1432.731968899956,145,none,0,,,1437.7386832999764,,,,,,,,31,D,2023-12-15_09h14.55.456,gca_avoidance_task,2022.2.4,143.92071702188983,
positions.xlsx,stimuli.xlsx,stimuli/Social2.png,stimuli/Social1.png,stimuli/Nonsocial2.png,stimuli/Nonsocial1.png,,"(0.7, 0.5)",cs_minus_s,,,,,0,0,0,0,,,,,,,,,1,8,24,6,,,,,,,,,,,,,,,,,,,,,1447.4813730999595,150,reward,1,0.7430063000647351,0.7430096999742091,1448.2313504000194,,,,,,,,31,D,2023-12-15_09h14.55.456,gca_avoidance_task,2022.2.4,143.92071702188983,
positions.xlsx,stimuli.xlsx,stimuli/Social2.png,stimuli/Social1.png,stimuli/Nonsocial2.png,stimuli/Nonsocial1.png,,"(-0.7, -0.5)",cs_plus_ns,,,,,0,0,0,0,,,,,,,,,1,9,25,9,,,,,,,,,,,,,,,,,,,,,1458.550405099988,150,none,0,,,1463.557151200017,,,,,,,,31,D,2023-12-15_09h14.55.456,gca_avoidance_task,2022.2.4,143.92071702188983,
positions.xlsx,stimuli.xlsx,stimuli/Social2.png,stimuli/Social1.png,stimuli/Nonsocial2.png,stimuli/Nonsocial1.png,,"(0.7, 0.5)",cs_plus_s,,,,,0,0,0,0,,,,,,,,,1,10,26,2,,,,,,,,,,,,,,,,,,,,,1472.730399699998,150,none,0,,,1477.7371776999207,,,,,,,,31,D,2023-12-15_09h14.55.456,gca_avoidance_task,2022.2.4,143.92071702188983,
positions.xlsx,stimuli.xlsx,stimuli/Social2.png,stimuli/Social1.png,stimuli/Nonsocial2.png,stimuli/Nonsocial1.png,,"(0.7, -0.5)",cs_plus_s,,,,,0,0,0,0,,,,,,,,,1,11,27,3,,,,,,,,,,,,,,,,,,,,,1487.000635299948,150,none,0,,,1492.0074523999356,,,,,,,,31,D,2023-12-15_09h14.55.456,gca_avoidance_task,2022.2.4,143.92071702188983,
positions.xlsx,stimuli.xlsx,stimuli/Social2.png,stimuli/Social1.png,stimuli/Nonsocial2.png,stimuli/Nonsocial1.png,,"(-0.7, 0.5)",cs_minus_ns,,,,,0,0,0,0,,,,,,,,,1,12,28,12,,,,,,,,,,,,,,,,,,,,,1501.6320143999765,155,reward,1,0.41704890003893524,0.41705260006710887,1502.0556666000048,,,,,,,,31,D,2023-12-15_09h14.55.456,gca_avoidance_task,2022.2.4,143.92071702188983,
positions.xlsx,stimuli.xlsx,stimuli/Social2.png,stimuli/Social1.png,stimuli/Nonsocial2.png,stimuli/Nonsocial1.png,,"(-0.7, 0.5)",cs_plus_s,,,,,0,0,0,0,,,,,,,,,1,13,29,0,,,,,,,,,,,,,,,,,,,,,1512.1455565999495,155,none,0,,,1517.1522660999326,,,,,,,,31,D,2023-12-15_09h14.55.456,gca_avoidance_task,2022.2.4,143.92071702188983,
positions.xlsx,stimuli.xlsx,stimuli/Social2.png,stimuli/Social1.png,stimuli/Nonsocial2.png,stimuli/Nonsocial1.png,,"(0.7, -0.5)",cs_minus_s,,,,,0,0,0,0,,,,,,,,,1,14,30,7,,,,,,,,,,,,,,,,,,,,,1525.8602839999367,160,reward,1,0.5625643000239506,0.5625679999357089,1526.4297021999955,,,,,,,,31,D,2023-12-15_09h14.55.456,gca_avoidance_task,2022.2.4,143.92071702188983,
positions.xlsx,stimuli.xlsx,stimuli/Social2.png,stimuli/Social1.png,stimuli/Nonsocial2.png,stimuli/Nonsocial1.png,,"(0.7, -0.5)",cs_plus_ns,,,,,0,0,0,0,,,,,,,,,1,15,31,11,,,,,,,,,,,,,,,,,,,,,1536.1168268999318,160,none,0,,,1541.1305264999392,,,,,,,,31,D,2023-12-15_09h14.55.456,gca_avoidance_task,2022.2.4,143.92071702188983,
positions.xlsx,stimuli.xlsx,stimuli/Social2.png,stimuli/Social1.png,stimuli/Nonsocial2.png,stimuli/Nonsocial1.png,,"(-0.7, 0.5)",cs_plus_s,,,,,0,0,0,0,,,,,,,,,2,0,32,0,,,,,,,,,,,,,,,,,,,,,1550.5676845000125,160,none,0,,,1555.5743489000015,,,,,,,,31,D,2023-12-15_09h14.55.456,gca_avoidance_task,2022.2.4,143.92071702188983,
positions.xlsx,stimuli.xlsx,stimuli/Social2.png,stimuli/Social1.png,stimuli/Nonsocial2.png,stimuli/Nonsocial1.png,,"(-0.7, -0.5)",cs_minus_s,,,,,0,0,0,0,,,,,,,,,2,1,33,5,,,,,,,,,,,,,,,,,,,,,1565.0740270999959,165,reward,1,0.7639542000833899,0.763957800110802,1565.844809000031,,,,,,,,31,D,2023-12-15_09h14.55.456,gca_avoidance_task,2022.2.4,143.92071702188983,
positions.xlsx,stimuli.xlsx,stimuli/Social2.png,stimuli/Social1.png,stimuli/Nonsocial2.png,stimuli/Nonsocial1.png,,"(0.7, -0.5)",cs_plus_ns,,,,,0,0,0,0,,,,,,,,,2,2,34,11,,,,,,,,,,,,,,,,,,,,,1575.6152636000188,165,none,0,,,1580.6220088999253,,,,,,,,31,D,2023-12-15_09h14.55.456,gca_avoidance_task,2022.2.4,143.92071702188983,
positions.xlsx,stimuli.xlsx,stimuli/Social2.png,stimuli/Social1.png,stimuli/Nonsocial2.png,stimuli/Nonsocial1.png,,"(-0.7, 0.5)",cs_minus_s,,,,,0,0,0,0,,,,,,,,,2,3,35,4,,,,,,,,,,,,,,,,,,,,,1590.4271862999303,170,reward,2,0.5698259000200778,0.5761113999178633,1591.163268400007,,,,,,,,31,D,2023-12-15_09h14.55.456,gca_avoidance_task,2022.2.4,143.92071702188983,
positions.xlsx,stimuli.xlsx,stimuli/Social2.png,stimuli/Social1.png,stimuli/Nonsocial2.png,stimuli/Nonsocial1.png,,"(0.7, -0.5)",cs_minus_s,,,,,0,0,0,0,,,,,,,,,2,4,36,7,,,,,,,,,,,,,,,,,,,,,1599.933767199982,175,reward,1,0.6810342000098899,0.6810379000380635,1600.6212252000114,,,,,,,,31,D,2023-12-15_09h14.55.456,gca_avoidance_task,2022.2.4,143.92071702188983,
positions.xlsx,stimuli.xlsx,stimuli/Social2.png,stimuli/Social1.png,stimuli/Nonsocial2.png,stimuli/Nonsocial1.png,,"(0.7, 0.5)",cs_plus_s,,,,,0,0,0,0,,,,,,,,,2,5,37,2,,,,,,,,,,,,,,,,,,,,,1610.8222205999773,175,none,0,,,1615.8290352999466,,,,,,,,31,D,2023-12-15_09h14.55.456,gca_avoidance_task,2022.2.4,143.92071702188983,
positions.xlsx,stimuli.xlsx,stimuli/Social2.png,stimuli/Social1.png,stimuli/Nonsocial2.png,stimuli/Nonsocial1.png,,"(-0.7, -0.5)",cs_plus_ns,,,,,0,0,0,0,,,,,,,,,2,6,38,9,,,,,,,,,,,,,,,,,,,,,1624.5509130000137,175,none,0,,,1629.5576182999648,,,,,,,,31,D,2023-12-15_09h14.55.456,gca_avoidance_task,2022.2.4,143.92071702188983,
positions.xlsx,stimuli.xlsx,stimuli/Social2.png,stimuli/Social1.png,stimuli/Nonsocial2.png,stimuli/Nonsocial1.png,,"(0.7, 0.5)",cs_minus_ns,,,,,0,0,0,0,,,,,,,,,2,7,39,14,,,,,,,,,,,,,,,,,,,,,1639.8210952000227,180,reward,1,0.7504947000415996,0.7504984000697732,1640.578014699975,,,,,,,,31,D,2023-12-15_09h14.55.456,gca_avoidance_task,2022.2.4,143.92071702188983,
positions.xlsx,stimuli.xlsx,stimuli/Social2.png,stimuli/Social1.png,stimuli/Nonsocial2.png,stimuli/Nonsocial1.png,,"(0.7, -0.5)",cs_minus_ns,,,,,0,0,0,0,,,,,,,,,2,8,40,15,,,,,,,,,,,,,,,,,,,,,1649.4040691999253,185,reward,1,0.7850114000029862,0.785015199915506,1650.1956931999885,,,,,,,,31,D,2023-12-15_09h14.55.456,gca_avoidance_task,2022.2.4,143.92071702188983,
positions.xlsx,stimuli.xlsx,stimuli/Social2.png,stimuli/Social1.png,stimuli/Nonsocial2.png,stimuli/Nonsocial1.png,,"(-0.7, 0.5)",cs_minus_ns,,,,,0,0,0,0,,,,,,,,,2,9,41,12,,,,,,,,,,,,,,,,,,,,,1659.6397805999732,190,reward,1,0.7087107999250293,0.7087144999532029,1660.3550343000097,,,,,,,,31,D,2023-12-15_09h14.55.456,gca_avoidance_task,2022.2.4,143.92071702188983,
positions.xlsx,stimuli.xlsx,stimuli/Social2.png,stimuli/Social1.png,stimuli/Nonsocial2.png,stimuli/Nonsocial1.png,,"(-0.7, -0.5)",cs_minus_ns,,,,,0,0,0,0,,,,,,,,,2,10,42,13,,,,,,,,,,,,,,,,,,,,,1669.8963335999288,195,reward,1,0.8333784000715241,0.8333821000996977,1670.7365581999766,,,,,,,,31,D,2023-12-15_09h14.55.456,gca_avoidance_task,2022.2.4,143.92071702188983,
positions.xlsx,stimuli.xlsx,stimuli/Social2.png,stimuli/Social1.png,stimuli/Nonsocial2.png,stimuli/Nonsocial1.png,,"(-0.7, 0.5)",cs_plus_ns,,,,,0,0,0,0,,,,,,,,,2,11,43,8,,,,,,,,,,,,,,,,,,,,,1680.9097797999857,195,none,0,,,1685.9234511000104,,,,,,,,31,D,2023-12-15_09h14.55.456,gca_avoidance_task,2022.2.4,143.92071702188983,
positions.xlsx,stimuli.xlsx,stimuli/Social2.png,stimuli/Social1.png,stimuli/Nonsocial2.png,stimuli/Nonsocial1.png,,"(0.7, 0.5)",cs_minus_s,,,,,0,0,0,0,,,,,,,,,2,12,44,6,,,,,,,,,,,,,,,,,,,,,1695.930063799955,200,reward,1,0.7430716999806464,0.743088599992916,1696.6800448999275,,,,,,,,31,D,2023-12-15_09h14.55.456,gca_avoidance_task,2022.2.4,143.92071702188983,
positions.xlsx,stimuli.xlsx,stimuli/Social2.png,stimuli/Social1.png,stimuli/Nonsocial2.png,stimuli/Nonsocial1.png,,"(-0.7, -0.5)",cs_plus_s,,,,,0,0,0,0,,,,,,,,,2,13,45,1,,,,,,,,,,,,,,,,,,,,,1705.7490956999827,200,none,0,,,1710.7557899999665,,,,,,,,31,D,2023-12-15_09h14.55.456,gca_avoidance_task,2022.2.4,143.92071702188983,
positions.xlsx,stimuli.xlsx,stimuli/Social2.png,stimuli/Social1.png,stimuli/Nonsocial2.png,stimuli/Nonsocial1.png,,"(0.7, 0.5)",cs_plus_ns,,,,,0,0,0,0,,,,,,,,,2,14,46,10,,,,,,,,,,,,,,,,,,,,,1719.8110260999529,200,none,0,,,1724.8177697999636,,,,,,,,31,D,2023-12-15_09h14.55.456,gca_avoidance_task,2022.2.4,143.92071702188983,
positions.xlsx,stimuli.xlsx,stimuli/Social2.png,stimuli/Social1.png,stimuli/Nonsocial2.png,stimuli/Nonsocial1.png,,"(0.7, -0.5)",cs_plus_s,,,,,0,0,0,0,,,,,,,,,2,15,47,3,,,,,,,,,,,,,,,,,,,,,1733.8174141999334,200,none,0,,,1738.8241632999852,,,,,,,,31,D,2023-12-15_09h14.55.456,gca_avoidance_task,2022.2.4,143.92071702188983,
positions.xlsx,stimuli.xlsx,stimuli/Social2.png,stimuli/Social1.png,stimuli/Nonsocial2.png,stimuli/Nonsocial1.png,,"(-0.7, 0.5)",cs_minus_ns,,,,,0,0,0,0,,,,,,,,,3,0,48,12,,,,,,,,,,,,,,,,,,,,,1747.886314400006,205,reward,1,0.6675169999944046,0.6675208000233397,1748.5599350000266,,,,,,,,31,D,2023-12-15_09h14.55.456,gca_avoidance_task,2022.2.4,143.92071702188983,
positions.xlsx,stimuli.xlsx,stimuli/Social2.png,stimuli/Social1.png,stimuli/Nonsocial2.png,stimuli/Nonsocial1.png,,"(0.7, 0.5)",cs_minus_ns,,,,,0,0,0,0,,,,,,,,,3,1,49,14,,,,,,,,,,,,,,,,,,,,,1758.4553567999974,210,reward,1,0.7362577000167221,0.7362615000456572,1759.1983862000052,,,,,,,,31,D,2023-12-15_09h14.55.456,gca_avoidance_task,2022.2.4,143.92071702188983,
positions.xlsx,stimuli.xlsx,stimuli/Social2.png,stimuli/Social1.png,stimuli/Nonsocial2.png,stimuli/Nonsocial1.png,,"(0.7, 0.5)",cs_minus_s,,,,,0,0,0,0,,,,,,,,,3,2,50,6,,,,,,,,,,,,,,,,,,,,,1768.5174567999784,215,reward,1,0.7502268000971526,0.7502306000096723,1769.274375799927,,,,,,,,31,D,2023-12-15_09h14.55.456,gca_avoidance_task,2022.2.4,143.92071702188983,
positions.xlsx,stimuli.xlsx,stimuli/Social2.png,stimuli/Social1.png,stimuli/Nonsocial2.png,stimuli/Nonsocial1.png,,"(0.7, -0.5)",cs_plus_s,,,,,0,0,0,0,,,,,,,,,3,3,51,3,,,,,,,,,,,,,,,,,,,,,1779.2670796000166,215,none,0,,,1784.2737903000088,,,,,,,,31,D,2023-12-15_09h14.55.456,gca_avoidance_task,2022.2.4,143.92071702188983,
positions.xlsx,stimuli.xlsx,stimuli/Social2.png,stimuli/Social1.png,stimuli/Nonsocial2.png,stimuli/Nonsocial1.png,,"(-0.7, 0.5)",cs_minus_s,,,,,0,0,0,0,,,,,,,,,3,4,52,4,,,,,,,,,,,,,,,,,,,,,1794.0859127999283,220,reward,1,0.6461196999298409,0.6461234999587759,1794.7386683999794,,,,,,,,31,D,2023-12-15_09h14.55.456,gca_avoidance_task,2022.2.4,143.92071702188983,
positions.xlsx,stimuli.xlsx,stimuli/Social2.png,stimuli/Social1.png,stimuli/Nonsocial2.png,stimuli/Nonsocial1.png,,"(-0.7, 0.5)",cs_plus_s,,,,,0,0,0,0,,,,,,,,,3,5,53,0,,,,,,,,,,,,,,,,,,,,,1804.6688288999721,220,none,0,,,1809.6755578999873,,,,,,,,31,D,2023-12-15_09h14.55.456,gca_avoidance_task,2022.2.4,143.92071702188983,
positions.xlsx,stimuli.xlsx,stimuli/Social2.png,stimuli/Social1.png,stimuli/Nonsocial2.png,stimuli/Nonsocial1.png,,"(0.7, 0.5)",cs_plus_s,,,,,0,0,0,0,,,,,,,,,3,6,54,2,,,,,,,,,,,,,,,,,,,,,1819.786373400013,220,none,0,,,1824.7930759999435,,,,,,,,31,D,2023-12-15_09h14.55.456,gca_avoidance_task,2022.2.4,143.92071702188983,
positions.xlsx,stimuli.xlsx,stimuli/Social2.png,stimuli/Social1.png,stimuli/Nonsocial2.png,stimuli/Nonsocial1.png,,"(-0.7, -0.5)",cs_minus_s,,,,,0,0,0,0,,,,,,,,,3,7,55,5,,,,,,,,,,,,,,,,,,,,,1834.5010134000331,225,reward,1,0.618077400024049,0.6180827000644058,1835.1260277000256,,,,,,,,31,D,2023-12-15_09h14.55.456,gca_avoidance_task,2022.2.4,143.92071702188983,
positions.xlsx,stimuli.xlsx,stimuli/Social2.png,stimuli/Social1.png,stimuli/Nonsocial2.png,stimuli/Nonsocial1.png,,"(0.7, -0.5)",cs_plus_ns,,,,,0,0,0,0,,,,,,,,,3,8,56,11,,,,,,,,,,,,,,,,,,,,,1844.3478252999485,225,none,0,,,1849.3545948999235,,,,,,,,31,D,2023-12-15_09h14.55.456,gca_avoidance_task,2022.2.4,143.92071702188983,
positions.xlsx,stimuli.xlsx,stimuli/Social2.png,stimuli/Social1.png,stimuli/Nonsocial2.png,stimuli/Nonsocial1.png,,"(0.7, -0.5)",cs_minus_ns,,,,,0,0,0,0,,,,,,,,,3,9,57,15,,,,,,,,,,,,,,,,,,,,,1859.2291828999296,230,reward,1,0.6045680000679567,0.6045716000953689,1859.8403243999928,,,,,,,,31,D,2023-12-15_09h14.55.456,gca_avoidance_task,2022.2.4,143.92071702188983,
positions.xlsx,stimuli.xlsx,stimuli/Social2.png,stimuli/Social1.png,stimuli/Nonsocial2.png,stimuli/Nonsocial1.png,,"(-0.7, 0.5)",cs_plus_ns,,,,,0,0,0,0,,,,,,,,,3,10,58,8,,,,,,,,,,,,,,,,,,,,,1869.6038021999411,230,none,0,,,1874.6174982999219,,,,,,,,31,D,2023-12-15_09h14.55.456,gca_avoidance_task,2022.2.4,143.92071702188983,
positions.xlsx,stimuli.xlsx,stimuli/Social2.png,stimuli/Social1.png,stimuli/Nonsocial2.png,stimuli/Nonsocial1.png,,"(-0.7, -0.5)",cs_minus_ns,,,,,0,0,0,0,,,,,,,,,3,11,59,13,,,,,,,,,,,,,,,,,,,,,1884.026851600036,235,reward,1,0.5141716999933124,0.514175400021486,1884.547667899984,,,,,,,,31,D,2023-12-15_09h14.55.456,gca_avoidance_task,2022.2.4,143.92071702188983,
positions.xlsx,stimuli.xlsx,stimuli/Social2.png,stimuli/Social1.png,stimuli/Nonsocial2.png,stimuli/Nonsocial1.png,,"(-0.7, -0.5)",cs_plus_s,,,,,0,0,0,0,,,,,,,,,3,12,60,1,,,,,,,,,,,,,,,,,,,,,1893.7903922999976,235,none,0,,,1898.7971321999794,,,,,,,,31,D,2023-12-15_09h14.55.456,gca_avoidance_task,2022.2.4,143.92071702188983,
positions.xlsx,stimuli.xlsx,stimuli/Social2.png,stimuli/Social1.png,stimuli/Nonsocial2.png,stimuli/Nonsocial1.png,,"(0.7, 0.5)",cs_plus_ns,,,,,0,0,0,0,,,,,,,,,3,13,61,10,,,,,,,,,,,,,,,,,,,,,1908.1023113999981,235,none,0,,,1913.1090801999671,,,,,,,,31,D,2023-12-15_09h14.55.456,gca_avoidance_task,2022.2.4,143.92071702188983,
positions.xlsx,stimuli.xlsx,stimuli/Social2.png,stimuli/Social1.png,stimuli/Nonsocial2.png,stimuli/Nonsocial1.png,,"(0.7, -0.5)",cs_minus_s,,,,,0,0,0,0,,,,,,,,,3,14,62,7,,,,,,,,,,,,,,,,,,,,,1921.914284999948,240,reward,1,0.7918212000513449,0.7918248999631032,1922.7128765999805,,,,,,,,31,D,2023-12-15_09h14.55.456,gca_avoidance_task,2022.2.4,143.92071702188983,
positions.xlsx,stimuli.xlsx,stimuli/Social2.png,stimuli/Social1.png,stimuli/Nonsocial2.png,stimuli/Nonsocial1.png,,"(-0.7, -0.5)",cs_plus_ns,,,,,0,0,0,0,,,,,,,,,3,15,63,9,,,,,,,,,,,,,,,,,,,,,1931.844466199982,240,none,0,,,1936.8511658000061,,,,,,,,31,D,2023-12-15_09h14.55.456,gca_avoidance_task,2022.2.4,143.92071702188983,
positions.xlsx,stimuli.xlsx,stimuli/Social2.png,stimuli/Social1.png,stimuli/Nonsocial2.png,stimuli/Nonsocial1.png,,"(0.7, 0.5)",cs_plus_s,,,,,0,0,0,0,,,,,,,,,4,0,64,2,,,,,,,,,,,,,,,,,,,,,1946.586921399925,240,none,0,,,1951.5936908000149,,,,,,,,31,D,2023-12-15_09h14.55.456,gca_avoidance_task,2022.2.4,143.92071702188983,
positions.xlsx,stimuli.xlsx,stimuli/Social2.png,stimuli/Social1.png,stimuli/Nonsocial2.png,stimuli/Nonsocial1.png,,"(0.7, -0.5)",cs_plus_s,,,,,0,0,0,0,,,,,,,,,4,1,65,3,,,,,,,,,,,,,,,,,,,,,1960.9544213999761,240,none,0,,,1965.961204299936,,,,,,,,31,D,2023-12-15_09h14.55.456,gca_avoidance_task,2022.2.4,143.92071702188983,
positions.xlsx,stimuli.xlsx,stimuli/Social2.png,stimuli/Social1.png,stimuli/Nonsocial2.png,stimuli/Nonsocial1.png,,"(-0.7, 0.5)",cs_minus_ns,,,,,0,0,0,0,,,,,,,,,4,2,66,12,,,,,,,,,,,,,,,,,,,,,1975.9399604999926,245,reward,1,0.7502506000455469,0.750254400074482,1976.6969098999398,,,,,,,,31,D,2023-12-15_09h14.55.456,gca_avoidance_task,2022.2.4,143.92071702188983,
positions.xlsx,stimuli.xlsx,stimuli/Social2.png,stimuli/Social1.png,stimuli/Nonsocial2.png,stimuli/Nonsocial1.png,,"(-0.7, 0.5)",cs_plus_ns,,,,,0,0,0,0,,,,,,,,,4,3,67,8,,,,,,,,,,,,,,,,,,,,,1985.9326594999293,245,none,0,,,1990.9393879999407,,,,,,,,31,D,2023-12-15_09h14.55.456,gca_avoidance_task,2022.2.4,143.92071702188983,
positions.xlsx,stimuli.xlsx,stimuli/Social2.png,stimuli/Social1.png,stimuli/Nonsocial2.png,stimuli/Nonsocial1.png,,"(0.7, 0.5)",cs_plus_ns,,,,,0,0,0,0,,,,,,,,,4,4,68,10,,,,,,,,,,,,,,,,,,,,,2000.9737075000303,245,none,0,,,2005.9804799000267,,,,,,,,31,D,2023-12-15_09h14.55.456,gca_avoidance_task,2022.2.4,143.92071702188983,
positions.xlsx,stimuli.xlsx,stimuli/Social2.png,stimuli/Social1.png,stimuli/Nonsocial2.png,stimuli/Nonsocial1.png,,"(0.7, -0.5)",cs_plus_ns,,,,,0,0,0,0,,,,,,,,,4,5,69,11,,,,,,,,,,,,,,,,,,,,,2015.7508988999762,245,none,0,,,2020.7576639000326,,,,,,,,31,D,2023-12-15_09h14.55.456,gca_avoidance_task,2022.2.4,143.92071702188983,
positions.xlsx,stimuli.xlsx,stimuli/Social2.png,stimuli/Social1.png,stimuli/Nonsocial2.png,stimuli/Nonsocial1.png,,"(0.7, -0.5)",cs_minus_s,,,,,0,0,0,0,,,,,,,,,4,6,70,7,,,,,,,,,,,,,,,,,,,,,2030.1670336999232,250,reward,1,0.7153640000615269,0.7153675999725237,2030.8892226000316,,,,,,,,31,D,2023-12-15_09h14.55.456,gca_avoidance_task,2022.2.4,143.92071702188983,
positions.xlsx,stimuli.xlsx,stimuli/Social2.png,stimuli/Social1.png,stimuli/Nonsocial2.png,stimuli/Nonsocial1.png,,"(0.7, 0.5)",cs_minus_s,,,,,0,0,0,0,,,,,,,,,4,7,71,6,,,,,,,,,,,,,,,,,,,,,2040.6735615000362,255,reward,1,0.6527217999100685,0.6527252999367192,2041.3332881999668,,,,,,,,31,D,2023-12-15_09h14.55.456,gca_avoidance_task,2022.2.4,143.92071702188983,
positions.xlsx,stimuli.xlsx,stimuli/Social2.png,stimuli/Social1.png,stimuli/Nonsocial2.png,stimuli/Nonsocial1.png,,"(-0.7, -0.5)",cs_minus_s,,,,,0,0,0,0,,,,,,,,,4,8,72,5,,,,,,,,,,,,,,,,,,,,,2050.4509490999626,260,reward,1,0.5833866999018937,0.5833903999300674,2051.0412104999414,,,,,,,,31,D,2023-12-15_09h14.55.456,gca_avoidance_task,2022.2.4,143.92071702188983,
positions.xlsx,stimuli.xlsx,stimuli/Social2.png,stimuli/Social1.png,stimuli/Nonsocial2.png,stimuli/Nonsocial1.png,,"(-0.7, 0.5)",cs_minus_s,,,,,0,0,0,0,,,,,,,,,4,9,73,4,,,,,,,,,,,,,,,,,,,,,2061.096372299944,265,reward,1,0.5766258999938145,0.5766296000219882,2061.6796942999354,,,,,,,,31,D,2023-12-15_09h14.55.456,gca_avoidance_task,2022.2.4,143.92071702188983,
positions.xlsx,stimuli.xlsx,stimuli/Social2.png,stimuli/Social1.png,stimuli/Nonsocial2.png,stimuli/Nonsocial1.png,,"(0.7, -0.5)",cs_minus_ns,,,,,0,0,0,0,,,,,,,,,4,10,74,15,,,,,,,,,,,,,,,,,,,,,2071.6237520999275,270,reward,1,0.8055879999883473,0.805591500014998,2072.436229199986,,,,,,,,31,D,2023-12-15_09h14.55.456,gca_avoidance_task,2022.2.4,143.92071702188983,
positions.xlsx,stimuli.xlsx,stimuli/Social2.png,stimuli/Social1.png,stimuli/Nonsocial2.png,stimuli/Nonsocial1.png,,"(-0.7, -0.5)",cs_minus_ns,,,,,0,0,0,0,,,,,,,,,4,11,75,13,,,,,,,,,,,,,,,,,,,,,2082.144169499981,275,reward,1,0.5489002000540495,0.5489037000807002,2082.6997275999747,,,,,,,,31,D,2023-12-15_09h14.55.456,gca_avoidance_task,2022.2.4,143.92071702188983,
positions.xlsx,stimuli.xlsx,stimuli/Social2.png,stimuli/Social1.png,stimuli/Nonsocial2.png,stimuli/Nonsocial1.png,,"(-0.7, 0.5)",cs_plus_s,,,,,0,0,0,0,,,,,,,,,4,12,76,0,,,,,,,,,,,,,,,,,,,,,2091.5465847000014,275,none,0,,,2096.5533117000014,,,,,,,,31,D,2023-12-15_09h14.55.456,gca_avoidance_task,2022.2.4,143.92071702188983,
positions.xlsx,stimuli.xlsx,stimuli/Social2.png,stimuli/Social1.png,stimuli/Nonsocial2.png,stimuli/Nonsocial1.png,,"(0.7, 0.5)",cs_minus_ns,,,,,0,0,0,0,,,,,,,,,4,13,77,14,,,,,,,,,,,,,,,,,,,,,2106.497386800009,280,reward,1,0.6948077999986708,0.6948112999089062,2107.1987482999684,,,,,,,,31,D,2023-12-15_09h14.55.456,gca_avoidance_task,2022.2.4,143.92071702188983,
positions.xlsx,stimuli.xlsx,stimuli/Social2.png,stimuli/Social1.png,stimuli/Nonsocial2.png,stimuli/Nonsocial1.png,,"(-0.7, -0.5)",cs_plus_ns,,,,,0,0,0,0,,,,,,,,,4,14,78,9,,,,,,,,,,,,,,,,,,,,,2117.253930100007,280,none,0,,,2122.260661499924,,,,,,,,31,D,2023-12-15_09h14.55.456,gca_avoidance_task,2022.2.4,143.92071702188983,
positions.xlsx,stimuli.xlsx,stimuli/Social2.png,stimuli/Social1.png,stimuli/Nonsocial2.png,stimuli/Nonsocial1.png,,"(-0.7, -0.5)",cs_plus_s,,,,,0,0,0,0,,,,,,,,,4,15,79,1,,,,,,,,,,,,,,,,,,,,,2131.9686181999277,280,none,0,,,2136.9754162000027,,,,,,,,31,D,2023-12-15_09h14.55.456,gca_avoidance_task,2022.2.4,143.92071702188983,
positions.xlsx,stimuli.xlsx,stimuli/Social2.png,stimuli/Social1.png,stimuli/Nonsocial2.png,stimuli/Nonsocial1.png,cs_minus_ns,,,,,,,0,0,0,0,,,,,,,,,,,,,0,0,0,3,,,,,,,,,,,,,2153.8566527999938,10.0,3.3291609999723732,,,,,,,,,5.0,7.167033200035803,,,,,,31,D,2023-12-15_09h14.55.456,gca_avoidance_task,2022.2.4,143.92071702188983,
positions.xlsx,stimuli.xlsx,stimuli/Social2.png,stimuli/Social1.png,stimuli/Nonsocial2.png,stimuli/Nonsocial1.png,cs_plus_ns,,,,,,,0,0,0,0,,,,,,,,,,,,,0,1,1,1,,,,,,,,,,,,,2158.613423599978,6.0,3.0967832000460476,,,,,,,,,,,,,,,,31,D,2023-12-15_09h14.55.456,gca_avoidance_task,2022.2.4,143.92071702188983,
positions.xlsx,stimuli.xlsx,stimuli/Social2.png,stimuli/Social1.png,stimuli/Nonsocial2.png,stimuli/Nonsocial1.png,cs_plus_s,,,,,,,0,0,0,0,,,,,,,,,,,,,0,2,2,0,,,,,,,,,,,,,2162.731322599924,6.0,2.9584440999897197,,,,,,,,,,,,,,,,31,D,2023-12-15_09h14.55.456,gca_avoidance_task,2022.2.4,143.92071702188983,
positions.xlsx,stimuli.xlsx,stimuli/Social2.png,stimuli/Social1.png,stimuli/Nonsocial2.png,stimuli/Nonsocial1.png,cs_minus_s,,,,,,,0,0,0,0,,,,,,,,,,,,,0,3,3,2,,,,,,,,,,,,,2166.5228354999563,10.0,2.4798725999426097,,,,,,,,,,,,,,,,31,D,2023-12-15_09h14.55.456,gca_avoidance_task,2022.2.4,143.92071702188983,
positions.xlsx,stimuli.xlsx,stimuli/Social2.png,stimuli/Social1.png,stimuli/Nonsocial2.png,stimuli/Nonsocial1.png,cs_minus_s,,,,,,,0,0,0,0,,,,,,,,,,,,,,,,,0,0,0,2,,,,,,,,,,,,,,,,,,,,,,2169.856063199928,2190.049705000012,5,0.14565999992191792,3.7633627000031993,31,D,2023-12-15_09h14.55.456,gca_avoidance_task,2022.2.4,143.92071702188983,
positions.xlsx,stimuli.xlsx,stimuli/Social2.png,stimuli/Social1.png,stimuli/Nonsocial2.png,stimuli/Nonsocial1.png,cs_plus_ns,,,,,,,0,0,0,0,,,,,,,,,,,,,,,,,0,1,1,1,,,,,,,,,,,,,,,,,,,,,,,2204.9519549999386,7,0.014934799983166158,0.4374142999295145,31,D,2023-12-15_09h14.55.456,gca_avoidance_task,2022.2.4,143.92071702188983,
positions.xlsx,stimuli.xlsx,stimuli/Social2.png,stimuli/Social1.png,stimuli/Nonsocial2.png,stimuli/Nonsocial1.png,cs_minus_ns,,,,,,,0,0,0,0,,,,,,,,,,,,,,,,,0,2,2,3,,,,,,,,,,,,,,,,,,,,,,,2220.437478399952,9,0.013774799997918308,0.8615453001111746,31,D,2023-12-15_09h14.55.456,gca_avoidance_task,2022.2.4,143.92071702188983,
positions.xlsx,stimuli.xlsx,stimuli/Social2.png,stimuli/Social1.png,stimuli/Nonsocial2.png,stimuli/Nonsocial1.png,cs_plus_s,,,,,,,0,0,0,0,,,,,,,,,,,,,,,,,0,3,3,0,,,,,,,,,,,,,,,,,,,,,,,2235.6104590999894,5,0.013827399932779372,1.1878504999913275,31,D,2023-12-15_09h14.55.456,gca_avoidance_task,2022.2.4,143.92071702188983,
positions.xlsx,stimuli.xlsx,stimuli/Social2.png,stimuli/Social1.png,stimuli/Nonsocial2.png,stimuli/Nonsocial1.png,cs_plus_s,,,,,,,0,0,0,0,,,,,,,,,,,,,,,,,1,0,4,0,,,,,,,,,,,,,,,,,,,,,,,2250.6237910999916,5,0.11839970003347844,2.8197174000088125,31,D,2023-12-15_09h14.55.456,gca_avoidance_task,2022.2.4,143.92071702188983,
positions.xlsx,stimuli.xlsx,stimuli/Social2.png,stimuli/Social1.png,stimuli/Nonsocial2.png,stimuli/Nonsocial1.png,cs_minus_s,,,,,,,0,0,0,0,,,,,,,,,,,,,,,,,1,1,5,2,,,,,,,,,,,,,,,,,,,,,,,2265.949565100018,5,0.013334700022824109,0.10451880004256964,31,D,2023-12-15_09h14.55.456,gca_avoidance_task,2022.2.4,143.92071702188983,
positions.xlsx,stimuli.xlsx,stimuli/Social2.png,stimuli/Social1.png,stimuli/Nonsocial2.png,stimuli/Nonsocial1.png,cs_minus_ns,,,,,,,0,0,0,0,,,,,,,,,,,,,,,,,1,2,6,3,,,,,,,,,,,,,,,,,,,,,,,2281.421187400003,8,0.014308999991044402,0.5977464999305084,31,D,2023-12-15_09h14.55.456,gca_avoidance_task,2022.2.4,143.92071702188983,
positions.xlsx,stimuli.xlsx,stimuli/Social2.png,stimuli/Social1.png,stimuli/Nonsocial2.png,stimuli/Nonsocial1.png,cs_plus_ns,,,,,,,0,0,0,0,,,,,,,,,,,,,,,,,1,3,7,1,,,,,,,,,,,,,,,,,,,,,,,2296.330283700023,5,0.014601600007154047,3.1043519000522792,31,D,2023-12-15_09h14.55.456,gca_avoidance_task,2022.2.4,143.92071702188983,
positions.xlsx,stimuli.xlsx,stimuli/Social2.png,stimuli/Social1.png,stimuli/Nonsocial2.png,stimuli/Nonsocial1.png,cs_plus_ns,,,,,,,0,0,0,0,,,,,,,,,,,,,,,,,2,0,8,1,,,,,,,,,,,,,,,,,,,,,,,2311.788059299928,1,0.014185800100676715,9.999923099996522,31,D,2023-12-15_09h14.55.456,gca_avoidance_task,2022.2.4,143.92071702188983,
positions.xlsx,stimuli.xlsx,stimuli/Social2.png,stimuli/Social1.png,stimuli/Nonsocial2.png,stimuli/Nonsocial1.png,cs_minus_ns,,,,,,,0,0,0,0,,,,,,,,,,,,,,,,,2,1,9,3,,,,,,,,,,,,,,,,,,,,,,,2327.0582894999534,3,0.014992899959906936,0.5905096000060439,31,D,2023-12-15_09h14.55.456,gca_avoidance_task,2022.2.4,143.92071702188983,
positions.xlsx,stimuli.xlsx,stimuli/Social2.png,stimuli/Social1.png,stimuli/Nonsocial2.png,stimuli/Nonsocial1.png,cs_minus_s,,,,,,,0,0,0,0,,,,,,,,,,,,,,,,,2,2,10,2,,,,,,,,,,,,,,,,,,,,,,,2341.675781799946,4,0.013517600018531084,0.6251721000298858,31,D,2023-12-15_09h14.55.456,gca_avoidance_task,2022.2.4,143.92071702188983,
positions.xlsx,stimuli.xlsx,stimuli/Social2.png,stimuli/Social1.png,stimuli/Nonsocial2.png,stimuli/Nonsocial1.png,cs_plus_s,,,,,,,0,0,0,0,,,,,,,,,,,,,,,,,2,3,11,0,,,,,,,,,,,,,,,,,,,,,,,2356.3210284999805,2,0.013542799977585673,7.7571064999792725,31,D,2023-12-15_09h14.55.456,gca_avoidance_task,2022.2.4,143.92071702188983,
positions.xlsx,stimuli.xlsx,stimuli/Social2.png,stimuli/Social1.png,stimuli/Nonsocial2.png,stimuli/Nonsocial1.png,cs_minus_ns,,,,,,,0,0,0,0,,,,,,,,,,,,,,,,,3,0,12,3,,,,,,,,,,,,,,,,,,,,,,,2371.01490249997,2,0.09766089997719973,0.6391373999649659,31,D,2023-12-15_09h14.55.456,gca_avoidance_task,2022.2.4,143.92071702188983,
positions.xlsx,stimuli.xlsx,stimuli/Social2.png,stimuli/Social1.png,stimuli/Nonsocial2.png,stimuli/Nonsocial1.png,cs_minus_s,,,,,,,0,0,0,0,,,,,,,,,,,,,,,,,3,1,13,2,,,,,,,,,,,,,,,,,,,,,,,2385.750431900029,3,0.0158233999973163,0.5349336999934167,31,D,2023-12-15_09h14.55.456,gca_avoidance_task,2022.2.4,143.92071702188983,
positions.xlsx,stimuli.xlsx,stimuli/Social2.png,stimuli/Social1.png,stimuli/Nonsocial2.png,stimuli/Nonsocial1.png,cs_plus_s,,,,,,,0,0,0,0,,,,,,,,,,,,,,,,,3,2,14,0,,,,,,,,,,,,,,,,,,,,,,,2400.5484834000235,2,0.013443600037135184,2.6043403999647126,31,D,2023-12-15_09h14.55.456,gca_avoidance_task,2022.2.4,143.92071702188983,
positions.xlsx,stimuli.xlsx,stimuli/Social2.png,stimuli/Social1.png,stimuli/Nonsocial2.png,stimuli/Nonsocial1.png,cs_plus_ns,,,,,,,0,0,0,0,,,,,,,,,,,,,,,,,3,3,15,1,,,,,,,,,,,,,,,,,,,,,,,2415.2145904999925,1,0.014320699963718653,10.000136799993925,31,D,2023-12-15_09h14.55.456,gca_avoidance_task,2022.2.4,143.92071702188983,
positions.xlsx,stimuli.xlsx,stimuli/Social2.png,stimuli/Social1.png,stimuli/Nonsocial2.png,stimuli/Nonsocial1.png,cs_minus_s,,,,,,,0,0,0,0,,,,,,,,,,,,,,,,,4,0,16,2,,,,,,,,,,,,,,,,,,,,,,,2430.255667099962,4,0.013493300066329539,0.8681868000421673,31,D,2023-12-15_09h14.55.456,gca_avoidance_task,2022.2.4,143.92071702188983,
positions.xlsx,stimuli.xlsx,stimuli/Social2.png,stimuli/Social1.png,stimuli/Nonsocial2.png,stimuli/Nonsocial1.png,cs_plus_ns,,,,,,,0,0,0,0,,,,,,,,,,,,,,,,,4,1,17,1,,,,,,,,,,,,,,,,,,,,,,,2445.4425695999525,2,0.015086199971847236,3.4374947999604046,31,D,2023-12-15_09h14.55.456,gca_avoidance_task,2022.2.4,143.92071702188983,
positions.xlsx,stimuli.xlsx,stimuli/Social2.png,stimuli/Social1.png,stimuli/Nonsocial2.png,stimuli/Nonsocial1.png,cs_minus_ns,,,,,,,0,0,0,0,,,,,,,,,,,,,,,,,4,2,18,3,,,,,,,,,,,,,,,,,,,,,,,2460.6433760999935,1,0.015332599985413253,9.999992799945176,31,D,2023-12-15_09h14.55.456,gca_avoidance_task,2022.2.4,143.92071702188983,
positions.xlsx,stimuli.xlsx,stimuli/Social2.png,stimuli/Social1.png,stimuli/Nonsocial2.png,stimuli/Nonsocial1.png,cs_plus_s,,,,,,,0,0,0,0,,,,,,,,,,,,,,,,,4,3,19,0,,,,,,,,,,,,,,,,,,,,,,,2475.455353999976,2,0.013733200030401349,0.02796069998294115,31,D,2023-12-15_09h14.55.456,gca_avoidance_task,2022.2.4,143.92071702188983,
positions.xlsx,stimuli.xlsx,stimuli/Social2.png,stimuli/Social1.png,stimuli/Nonsocial2.png,stimuli/Nonsocial1.png,cs_plus_ns,,,,,,,0,0,0,0,,,,,,,,,,,,,,,,,5,0,20,1,,,,,,,,,,,,,,,,,,,,,,,2490.36446479999,1,0.01433770009316504,10.00009330001194,31,D,2023-12-15_09h14.55.456,gca_avoidance_task,2022.2.4,143.92071702188983,
positions.xlsx,stimuli.xlsx,stimuli/Social2.png,stimuli/Social1.png,stimuli/Nonsocial2.png,stimuli/Nonsocial1.png,cs_minus_ns,,,,,,,0,0,0,0,,,,,,,,,,,,,,,,,5,1,21,3,,,,,,,,,,,,,,,,,,,,,,,2505.02360039996,1,0.01440549991093576,9.999922499991953,31,D,2023-12-15_09h14.55.456,gca_avoidance_task,2022.2.4,143.92071702188983,
positions.xlsx,stimuli.xlsx,stimuli/Social2.png,stimuli/Social1.png,stimuli/Nonsocial2.png,stimuli/Nonsocial1.png,cs_minus_s,,,,,,,0,0,0,0,,,,,,,,,,,,,,,,,5,2,22,2,,,,,,,,,,,,,,,,,,,,,,,2520.3771725000115,2,0.013448899961076677,5.979259700048715,31,D,2023-12-15_09h14.55.456,gca_avoidance_task,2022.2.4,143.92071702188983,
positions.xlsx,stimuli.xlsx,stimuli/Social2.png,stimuli/Social1.png,stimuli/Nonsocial2.png,stimuli/Nonsocial1.png,cs_plus_s,,,,,,,0,0,0,0,,,,,,,,,,,,,,,,,5,3,23,0,,,,,,,,,,,,,,,,,,,,,,,2535.1474603000097,1,0.0135967000387609,9.99993639998138,31,D,2023-12-15_09h14.55.456,gca_avoidance_task,2022.2.4,143.92071702188983,
positions.xlsx,stimuli.xlsx,stimuli/Social2.png,stimuli/Social1.png,stimuli/Nonsocial2.png,stimuli/Nonsocial1.png,cs_plus_s,,,,,,,0,0,0,0,,,,,,,,,,,,,,,,,6,0,24,0,,,,,,,,,,,,,,,,,,,,,,,2549.7371410999913,2,0.2296824000077322,7.368181099998765,31,D,2023-12-15_09h14.55.456,gca_avoidance_task,2022.2.4,143.92071702188983,
positions.xlsx,stimuli.xlsx,stimuli/Social2.png,stimuli/Social1.png,stimuli/Nonsocial2.png,stimuli/Nonsocial1.png,cs_minus_ns,,,,,,,0,0,0,0,,,,,,,,,,,,,,,,,6,1,25,3,,,,,,,,,,,,,,,,,,,,,,,2564.549035400036,3,0.01430789998266846,6.208466199925169,31,D,2023-12-15_09h14.55.456,gca_avoidance_task,2022.2.4,143.92071702188983,
positions.xlsx,stimuli.xlsx,stimuli/Social2.png,stimuli/Social1.png,stimuli/Nonsocial2.png,stimuli/Nonsocial1.png,cs_plus_ns,,,,,,,0,0,0,0,,,,,,,,,,,,,,,,,6,2,26,1,,,,,,,,,,,,,,,,,,,,,,,2579.0832474000053,2,0.01411670004017651,4.958481500041671,31,D,2023-12-15_09h14.55.456,gca_avoidance_task,2022.2.4,143.92071702188983,
positions.xlsx,stimuli.xlsx,stimuli/Social2.png,stimuli/Social1.png,stimuli/Nonsocial2.png,stimuli/Nonsocial1.png,cs_minus_s,,,,,,,0,0,0,0,,,,,,,,,,,,,,,,,6,3,27,2,,,,,,,,,,,,,,,,,,,,,,,2594.034037699923,1,0.013614799943752587,10.000246400013566,31,D,2023-12-15_09h14.55.456,gca_avoidance_task,2022.2.4,143.92071702188983,
positions.xlsx,stimuli.xlsx,stimuli/Social2.png,stimuli/Social1.png,stimuli/Nonsocial2.png,stimuli/Nonsocial1.png,cs_minus_s,,,,,,,0,0,0,0,,,,,,,,,,,,,,,,,7,0,28,2,,,,,,,,,,,,,,,,,,,,,,,2608.9709545000223,3,0.013329399982467294,0.6111450999742374,31,D,2023-12-15_09h14.55.456,gca_avoidance_task,2022.2.4,143.92071702188983,
positions.xlsx,stimuli.xlsx,stimuli/Social2.png,stimuli/Social1.png,stimuli/Nonsocial2.png,stimuli/Nonsocial1.png,cs_minus_ns,,,,,,,0,0,0,0,,,,,,,,,,,,,,,,,7,1,29,3,,,,,,,,,,,,,,,,,,,,,,,2624.380059999996,3,0.19488269998691976,0.791803399915807,31,D,2023-12-15_09h14.55.456,gca_avoidance_task,2022.2.4,143.92071702188983,
positions.xlsx,stimuli.xlsx,stimuli/Social2.png,stimuli/Social1.png,stimuli/Nonsocial2.png,stimuli/Nonsocial1.png,cs_plus_s,,,,,,,0,0,0,0,,,,,,,,,,,,,,,,,7,2,30,0,,,,,,,,,,,,,,,,,,,,,,,2639.75444769999,3,0.01387049991171807,5.833545399946161,31,D,2023-12-15_09h14.55.456,gca_avoidance_task,2022.2.4,143.92071702188983,
positions.xlsx,stimuli.xlsx,stimuli/Social2.png,stimuli/Social1.png,stimuli/Nonsocial2.png,stimuli/Nonsocial1.png,cs_plus_ns,,,,,,,0,0,0,0,,,,,,,,,,,,,,,,,7,3,31,1,,,,,,,,,,,,,,,,,,,,,,,2655.038629699964,8,0.014573400025255978,0.7018588000210002,31,D,2023-12-15_09h14.55.456,gca_avoidance_task,2022.2.4,143.92071702188983,
positions.xlsx,stimuli.xlsx,stimuli/Social2.png,stimuli/Social1.png,stimuli/Nonsocial2.png,stimuli/Nonsocial1.png,cs_minus_ns,,,,,,,0,0,0,0,,,,,,,,,,,,,,,,,8,0,32,3,,,,,,,,,,,,,,,,,,,,,,,2670.3991235999856,5,0.014236200018785894,0.1807558999862522,31,D,2023-12-15_09h14.55.456,gca_avoidance_task,2022.2.4,143.92071702188983,
positions.xlsx,stimuli.xlsx,stimuli/Social2.png,stimuli/Social1.png,stimuli/Nonsocial2.png,stimuli/Nonsocial1.png,cs_plus_s,,,,,,,0,0,0,0,,,,,,,,,,,,,,,,,8,1,33,0,,,,,,,,,,,,,,,,,,,,,,,2685.676327300025,9,0.014064099988900125,0.6252316000172868,31,D,2023-12-15_09h14.55.456,gca_avoidance_task,2022.2.4,143.92071702188983,
positions.xlsx,stimuli.xlsx,stimuli/Social2.png,stimuli/Social1.png,stimuli/Nonsocial2.png,stimuli/Nonsocial1.png,cs_minus_s,,,,,,,0,0,0,0,,,,,,,,,,,,,,,,,8,2,34,2,,,,,,,,,,,,,,,,,,,,,,,2700.252121299971,7,0.013586899964138865,0.6949525000527501,31,D,2023-12-15_09h14.55.456,gca_avoidance_task,2022.2.4,143.92071702188983,
positions.xlsx,stimuli.xlsx,stimuli/Social2.png,stimuli/Social1.png,stimuli/Nonsocial2.png,stimuli/Nonsocial1.png,cs_plus_ns,,,,,,,0,0,0,0,,,,,,,,,,,,,,,,,8,3,35,1,,,,,,,,,,,,,,,,,,,,,,,2715.0918262000196,4,0.013723699958063662,0.7500451999949291,31,D,2023-12-15_09h14.55.456,gca_avoidance_task,2022.2.4,143.92071702188983,
positions.xlsx,stimuli.xlsx,stimuli/Social2.png,stimuli/Social1.png,stimuli/Nonsocial2.png,stimuli/Nonsocial1.png,cs_minus_s,,,,,,,0,0,0,0,,,,,,,,,,,,,,,,,9,0,36,2,,,,,,,,,,,,,,,,,,,,,,,2730.32039899996,4,0.013598800054751337,4.646054600016214,31,D,2023-12-15_09h14.55.456,gca_avoidance_task,2022.2.4,143.92071702188983,
positions.xlsx,stimuli.xlsx,stimuli/Social2.png,stimuli/Social1.png,stimuli/Nonsocial2.png,stimuli/Nonsocial1.png,cs_plus_s,,,,,,,0,0,0,0,,,,,,,,,,,,,,,,,9,1,37,0,,,,,,,,,,,,,,,,,,,,,,,2745.0976338000037,3,0.014390600030310452,2.0419937000842765,31,D,2023-12-15_09h14.55.456,gca_avoidance_task,2022.2.4,143.92071702188983,
positions.xlsx,stimuli.xlsx,stimuli/Social2.png,stimuli/Social1.png,stimuli/Nonsocial2.png,stimuli/Nonsocial1.png,cs_minus_ns,,,,,,,0,0,0,0,,,,,,,,,,,,,,,,,9,2,38,3,,,,,,,,,,,,,,,,,,,,,,,2760.5275570999365,3,0.014766499982215464,0.7016387999756262,31,D,2023-12-15_09h14.55.456,gca_avoidance_task,2022.2.4,143.92071702188983,
positions.xlsx,stimuli.xlsx,stimuli/Social2.png,stimuli/Social1.png,stimuli/Nonsocial2.png,stimuli/Nonsocial1.png,cs_plus_ns,,,,,,,0,0,0,0,,,,,,,,,,,,,,,,,9,3,39,1,,,,,,,,,,,,,,,,,,,,,,,2775.9227980999276,4,0.015231800032779574,0.7157278000377119,31,D,2023-12-15_09h14.55.456,gca_avoidance_task,2022.2.4,143.92071702188983,
positions.xlsx,stimuli.xlsx,stimuli/Social2.png,stimuli/Social1.png,stimuli/Nonsocial2.png,stimuli/Nonsocial1.png,cs_plus_s,,,,,,,0,0,0,0,,,,,,,,,,,,,,,,,,,,,0,0,0,0,,,,,2789.8458858999657,8.0,12.176257899962366,,,,,,,,,,,,,,,,31,D,2023-12-15_09h14.55.456,gca_avoidance_task,2022.2.4,143.92071702188983,
positions.xlsx,stimuli.xlsx,stimuli/Social2.png,stimuli/Social1.png,stimuli/Nonsocial2.png,stimuli/Nonsocial1.png,cs_minus_s,,,,,,,0,0,0,0,,,,,,,,,,,,,,,,,,,,,0,1,1,2,,,,,2803.9842503999826,10.0,9.111389299971052,,,,,,,,,,,,,,,,31,D,2023-12-15_09h14.55.456,gca_avoidance_task,2022.2.4,143.92071702188983,
positions.xlsx,stimuli.xlsx,stimuli/Social2.png,stimuli/Social1.png,stimuli/Nonsocial2.png,stimuli/Nonsocial1.png,cs_plus_ns,,,,,,,0,0,0,0,,,,,,,,,,,,,,,,,,,,,0,2,2,1,,,,,2813.9560597999953,8.0,2.7146178000839427,,,,,,,,,,,,,,,,31,D,2023-12-15_09h14.55.456,gca_avoidance_task,2022.2.4,143.92071702188983,
positions.xlsx,stimuli.xlsx,stimuli/Social2.png,stimuli/Social1.png,stimuli/Nonsocial2.png,stimuli/Nonsocial1.png,cs_minus_ns,,,,,,,0,0,0,0,,,,,,,,,,,,,,,,,,,,,0,3,3,3,,,,,2817.5253830000293,9.0,3.8470195000991225,,,,,,,,,,,,,,,,31,D,2023-12-15_09h14.55.456,gca_avoidance_task,2022.2.4,143.92071702188983,
