posFile,stimFile,cs_plus_s,cs_minus_s,cs_plus_ns,cs_minus_ns,stimtype,position,trialtype,trials_threshold.thisRepN,trials_threshold.thisTrialN,trials_threshold.thisN,trials_threshold.thisIndex,blocks.thisRepN,blocks.thisTrialN,blocks.thisN,blocks.thisIndex,ratingtrials1.thisRepN,ratingtrials1.thisTrialN,ratingtrials1.thisN,ratingtrials1.thisIndex,learning_trials.thisRepN,learning_trials.thisTrialN,learning_trials.thisN,learning_trials.thisIndex,trials.thisRepN,trials.thisTrialN,trials.thisN,trials.thisIndex,ratingtrials2.thisRepN,ratingtrials2.thisTrialN,ratingtrials2.thisN,ratingtrials2.thisIndex,testtrials.thisRepN,testtrials.thisTrialN,testtrials.thisN,testtrials.thisIndex,ratingtrials3.thisRepN,ratingtrials3.thisTrialN,ratingtrials3.thisN,ratingtrials3.thisIndex,textStart.started,spaceStart.started,spaceStart.keys,spaceStart.rt,textPainThreshold.started,spacePainThreshold.started,spacePainThreshold.keys,spacePainThreshold.rt,textRateT.started,text_noPainT.started,text_slightPainT.started,text_highPainT.started,sliderPainT.started,keys_PainT.started,sliderPainT.response,sliderPainT.rt,keys_PainT.keys,keys_PainT.rt,fixcrossT.started,portShock1T.started,portShock1T.stopped,portShock2T.started,portShock2T.stopped,portShock3T.started,portShock3T.stopped,fixcrossT.stopped,text_ETCalibration.started,spaceETCalibration.started,spaceETCalibration.keys,spaceETCalibration.rt,textStartExp.started,spaceStartExp.started,spaceStartExp.keys,spaceStartExp.rt,imageRating.started,sliderStim.started,spaceStim.started,sliderStim.response,sliderStim.rt,spaceStim.keys,spaceStim.rt,textStartTask.started,spaceStartTask.started,spaceStartTask.keys,spaceStartTask.rt,blankScreen.started,blankScreen.stopped,fixcross.started,image.started,roi.started,gazeCursor.started,portImage.started,portImage.stopped,score,outcome,roi.numLooks,roi.timesOn,roi.timesOff,imageFeedback.started,gazeCursor_Feedback.started,soundFeedback.started,portShock1.started,portShock1.stopped,portShock2.started,portShock2.stopped,portShock3.started,portShock3.stopped,soundFeedback.stopped,fixcrossE.started,fixcrossE.stopped,textRepeatTask.started,textboxRepeatInstruction.started,textRepeatSpace.started,spaceRepeatTask.started,spaceRepeatTask.keys,spaceRepeatTask.rt,textRate.started,text_noPain.started,text_slightPain.started,text_highPain.started,sliderPain.started,textSpacePain.started,spacePain.started,sliderPain.response,sliderPain.rt,spacePain.keys,spacePain.rt,textTestInstr.started,spaceTestInstr.started,spaceTestInstr.keys,spaceTestInstr.rt,imageTest.started,roiTest.started,portTestImage.started,portTestImage.stopped,roiTest.numLooks,roiTest.timesOn,roiTest.timesOff,participant,group,date,expName,psychopyVersion,frameRate,
,,,,,,,,,,,,,,,,,,,,,,,,,,,,,,,,,,,,,,,,,15.62489460001234,15.62489460001234,space,1.5780454999767244,,,,,,,,,,,,,,,,,,,,,,,,,,,,,,,,,,,,,,,,,,,,,,,,,,,,,,,,,,,,,,,,,,,,,,,,,,,,,,,,,,,,,,,,,,,,,,,16,A,2023-12-11_08h44.26.240,gca_avoidance_task,2022.2.4,143.87143653709293,
,,,,,,,,,,,,,,,,,,,,,,,,,,,,,,,,,,,,,,,,,,,,,17.215098799963016,17.215098799963016,space,0.7711402000277303,,,,,,,,,,,,,,,,,,,,,,,,,,,,,,,,,,,,,,,,,,,,,,,,,,,,,,,,,,,,,,,,,,,,,,,,,,,,,,,,,,,,,,,,,,,16,A,2023-12-11_08h44.26.240,gca_avoidance_task,2022.2.4,143.87143653709293,
,,,,,,,,,0,0,0,0,,,,,,,,,,,,,,,,,,,,,,,,,,,,,,,,,,,,,19.06921919999877,19.06921919999877,19.06921919999877,19.06921919999877,19.06921919999877,19.06921919999877,None,None,s,14.885514099965803,34.56162970000878,0.10485890001291409,0.11177909997059032,0.15341759996954352,0.16039849998196587,0.20202979998430237,0.20900500001152977,,,,,,,,,,,,,,,,,,,,,,,,,,,,,,,,,,,,,,,,,,,,,,,,,,,,,,,,,,,,,,,,,,,,,,,,,,16,A,2023-12-11_08h44.26.240,gca_avoidance_task,2022.2.4,143.87143653709293,
,,,,,,,,,1,0,1,0,,,,,,,,,,,,,,,,,,,,,,,,,,,,,,,,,,,,,35.34631609998178,35.34631609998178,35.34631609998178,35.34631609998178,35.34631609998178,35.34631609998178,0.0,9.19622010004241,s,13.344149200012907,49.248570600000676,0.10486769996350631,0.11180189996957779,0.15344339999137446,0.1603816999704577,0.20209959999192506,0.20902939996449277,,,,,,,,,,,,,,,,,,,,,,,,,,,,,,,,,,,,,,,,,,,,,,,,,,,,,,,,,,,,,,,,,,,,,,,,,,16,A,2023-12-11_08h44.26.240,gca_avoidance_task,2022.2.4,143.87143653709293,
,,,,,,,,,2,0,2,0,,,,,,,,,,,,,,,,,,,,,,,,,,,,,,,,,,,,,50.01238039997406,50.01238039997406,50.01238039997406,50.01238039997406,50.01238039997406,50.01238039997406,1.0,2.9720839000074193,s,7.365992700040806,57.88016299996525,0.09939600003417581,0.10632570000598207,0.15490770002361387,0.16186769999330863,0.203485100006219,0.21049790002871305,58.643959200009704,,,,,,,,,,,,,,,,,,,,,,,,,,,,,,,,,,,,,,,,,,,,,,,,,,,,,,,,,,,,,,,,,,,,,,,,,16,A,2023-12-11_08h44.26.240,gca_avoidance_task,2022.2.4,143.87143653709293,
,,,,,,,,,3,0,3,0,,,,,,,,,,,,,,,,,,,,,,,,,,,,,,,,,,,,,58.643959200009704,58.643959200009704,58.643959200009704,58.643959200009704,58.643959200009704,58.643959200009704,0.0,3.5962852999800816,s,10.350784099951852,69.50463489996037,0.10131709999404848,0.10826429998269305,0.1500009999726899,0.1569263999699615,0.2055574999540113,0.21248009998816997,70.2684895999846,,,,,,,,,,,,,,,,,,,,,,,,,,,,,,,,,,,,,,,,,,,,,,,,,,,,,,,,,,,,,,,,,,,,,,,,,16,A,2023-12-11_08h44.26.240,gca_avoidance_task,2022.2.4,143.87143653709293,
,,,,,,,,,4,0,4,0,,,,,,,,,,,,,,,,,,,,,,,,,,,,,,,,,,,,,70.2684895999846,70.2684895999846,70.2684895999846,70.2684895999846,70.2684895999846,70.2684895999846,1.0,4.095092200033832,s,8.742579200014006,79.51814130001003,0.10226370004238561,0.10929270001361147,0.15089910000097007,0.15788150002481416,0.19953119999263436,0.20650840003509074,80.28197369998088,,,,,,,,,,,,,,,,,,,,,,,,,,,,,,,,,,,,,,,,,,,,,,,,,,,,,,,,,,,,,,,,,,,,,,,,,16,A,2023-12-11_08h44.26.240,gca_avoidance_task,2022.2.4,143.87143653709293,
,,,,,,,,,5,0,5,0,,,,,,,,,,,,,,,,,,,,,,,,,,,,,,,,,,,,,80.28197369998088,80.28197369998088,80.28197369998088,80.28197369998088,80.28197369998088,80.28197369998088,2.0,2.314666699967347,s,7.6492354000220075,88.44138699996984,0.1031939999666065,0.11012119997758418,0.15177129994845018,0.15872680000029504,0.20041629998013377,0.207401099964045,89.2121931000147,,,,,,,,,,,,,,,,,,,,,,,,,,,,,,,,,,,,,,,,,,,,,,,,,,,,,,,,,,,,,,,,,,,,,,,,,16,A,2023-12-11_08h44.26.240,gca_avoidance_task,2022.2.4,143.87143653709293,
,,,,,,,,,6,0,6,0,,,,,,,,,,,,,,,,,,,,,,,,,,,,,,,,,,,,,89.2121931000147,89.2121931000147,89.2121931000147,89.2121931000147,89.2121931000147,89.2121931000147,2.0,5.19626190001145,s,11.598873700015247,101.32974089996424,0.09956760000204667,0.10657750000245869,0.15512690000468865,0.16210959997260943,0.20373740000650287,0.21069859998533502,102.10050969995791,,,,,,,,,,,,,,,,,,,,,,,,,,,,,,,,,,,,,,,,,,,,,,,,,,,,,,,,,,,,,,,,,,,,,,,,,16,A,2023-12-11_08h44.26.240,gca_avoidance_task,2022.2.4,143.87143653709293,
,,,,,,,,,7,0,7,0,,,,,,,,,,,,,,,,,,,,,,,,,,,,,,,,,,,,,102.10050969995791,102.10050969995791,102.10050969995791,102.10050969995791,102.10050969995791,102.10050969995791,3.0,2.4947504000156187,s,6.782090299995616,109.40582589997211,0.0995573999825865,0.10647030000109226,0.1550452999654226,0.1620280999923125,0.20367529999930412,0.21061279997229576,110.16274110000813,,,,,,,,,,,,,,,,,,,,,,,,,,,,,,,,,,,,,,,,,,,,,,,,,,,,,,,,,,,,,,,,,,,,,,,,,16,A,2023-12-11_08h44.26.240,gca_avoidance_task,2022.2.4,143.87143653709293,
,,,,,,,,,8,0,8,0,,,,,,,,,,,,,,,,,,,,,,,,,,,,,,,,,,,,,110.16274110000813,110.16274110000813,110.16274110000813,110.16274110000813,110.16274110000813,110.16274110000813,4.0,1.8488940999959596,s,7.3363274000003,118.21103130001575,0.10486540000420064,0.11180710000917315,0.15347949997521937,0.16045810002833605,0.20204260002356023,0.20902730000671,,,,,,,,,,,,,,,,,,,,,,,,,,,,,,,,,,,,,,,,,,,,,,,,,,,,,,,,,,,,,,,,,,,,,,,,,,16,A,2023-12-11_08h44.26.240,gca_avoidance_task,2022.2.4,143.87143653709293,
,,,,,,,,,9,0,9,0,,,,,,,,,,,,,,,,,,,,,,,,,,,,,,,,,,,,,118.96792359999381,118.96792359999381,118.96792359999381,118.96792359999381,118.96792359999381,118.96792359999381,4.0,2.047652100038249,s,5.763259000028484,125.24543599999743,0.10165779996896163,0.10864699998637661,0.1502675000228919,0.1572288000024855,0.20583300001453608,0.2127807000069879,126.01624719996471,,,,,,,,,,,,,,,,,,,,,,,,,,,,,,,,,,,,,,,,,,,,,,,,,,,,,,,,,,,,,,,,,,,,,,,,,16,A,2023-12-11_08h44.26.240,gca_avoidance_task,2022.2.4,143.87143653709293,
,,,,,,,,,10,0,10,0,,,,,,,,,,,,,,,,,,,,,,,,,,,,,,,,,,,,,126.01624719996471,126.01624719996471,126.01624719996471,126.01624719996471,126.01624719996471,126.01624719996471,5.0,1.6264185999752954,s,6.762174400035292,133.27983469999162,0.10334450000664219,0.11033370002405718,0.15199540002504364,0.158943000016734,0.20058200001949444,0.20752670004731044,134.0436950000003,,,,,,,,,,,,,,,,,,,,,,,,,,,,,,,,,,,,,,,,,,,,,,,,,,,,,,,,,,,,,,,,,,,,,,,,,16,A,2023-12-11_08h44.26.240,gca_avoidance_task,2022.2.4,143.87143653709293,
,,,,,,,,,11,0,11,0,,,,,,,,,,,,,,,,,,,,,,,,,,,,,,,,,,,,,134.0436950000003,134.0436950000003,134.0436950000003,134.0436950000003,134.0436950000003,134.0436950000003,6.0,1.4645493000280112,s,7.4389305000077,141.99477739998838,0.10236880002776161,0.10933030000887811,0.1510180000332184,0.15797310002380982,0.19965520000550896,0.20654630003264174,142.75862269999925,,,,,,,,,,,,,,,,,,,,,,,,,,,,,,,,,,,,,,,,,,,,,,,,,,,,,,,,,,,,,,,,,,,,,,,,,16,A,2023-12-11_08h44.26.240,gca_avoidance_task,2022.2.4,143.87143653709293,
,,,,,,,,,12,0,12,0,,,,,,,,,,,,,,,,,,,,,,,,,,,,,,,,,,,,,142.75862269999925,142.75862269999925,142.75862269999925,142.75862269999925,142.75862269999925,142.75862269999925,6.0,1.2253294000402093,s,6.427623600000516,149.69584229995962,0.10519949998706579,0.11218459997326136,0.15378920000512153,0.1607493999763392,0.20239539997419342,0.2093375999829732,,,,,,,,,,,,,,,,,,,,,,,,,,,,,,,,,,,,,,,,,,,,,,,,,,,,,,,,,,,,,,,,,,,,,,,,,,16,A,2023-12-11_08h44.26.240,gca_avoidance_task,2022.2.4,143.87143653709293,
,,,,,,,,,13,0,13,0,,,,,,,,,,,,,,,,,,,,,,,,,,,,,,,,,,,,,150.45972230000189,150.45972230000189,150.45972230000189,150.45972230000189,150.45972230000189,150.45972230000189,5.0,1.2666601999662817,s,6.342702699999791,157.31360589998076,0.0995898999972269,0.1065140999853611,0.15511089999927208,0.16205640003317967,0.20377910003298894,0.21071320003829896,158.1330275000073,,,,,,,,,,,,,,,,,,,,,,,,,,,,,,,,,,,,,,,,,,,,,,,,,,,,,,,,,,,,,,,,,,,,,,,,,16,A,2023-12-11_08h44.26.240,gca_avoidance_task,2022.2.4,143.87143653709293,
,,,,,,,,,14,0,14,0,,,,,,,,,,,,,,,,,,,,,,,,,,,,,,,,,,,,,158.1330275000073,158.1330275000073,158.1330275000073,158.1330275000073,158.1330275000073,158.1330275000073,6.0,2.033425299974624,s,7.277229900006205,165.91050200001337,0.10367820004466921,0.11061310005607083,0.15224860003218055,0.15922390000196174,0.20084760000463575,0.20780190004734322,166.67433409998193,,,,,,,,,,,,,,,,,,,,,,,,,,,,,,,,,,,,,,,,,,,,,,,,,,,,,,,,,,,,,,,,,,,,,,,,,16,A,2023-12-11_08h44.26.240,gca_avoidance_task,2022.2.4,143.87143653709293,
,,,,,,,,,15,0,15,0,,,,,,,,,,,,,,,,,,,,,,,,,,,,,,,,,,,,,166.67433409998193,166.67433409998193,166.67433409998193,166.67433409998193,166.67433409998193,166.67433409998193,7.0,1.260954600002151,s,6.352642600017134,173.54211669997312,0.10505269997520372,0.112011999997776,0.15367029997287318,0.16062839998630807,0.2022679999936372,0.20923559996299446,,,,,,,,,,,,,,,,,,,,,,,,,,,,,,,,,,,,,,,,,,,,,,,,,,,,,,,,,,,,,,,,,,,,,,,,,,16,A,2023-12-11_08h44.26.240,gca_avoidance_task,2022.2.4,143.87143653709293,
,,,,,,,,,16,0,16,0,,,,,,,,,,,,,,,,,,,,,,,,,,,,,,,,,,,,,174.29903110000305,174.29903110000305,174.29903110000305,174.29903110000305,174.29903110000305,174.29903110000305,5.0,2.9128819000325166,s,7.863802700012457,182.9167177999625,0.10574970004381612,0.11268920003203675,0.1543692999985069,0.16133010003250092,0.2029760000295937,0.20996659999946132,,,,,,,,,,,,,,,,,,,,,,,,,,,,,,,,,,,,,,,,,,,,,,,,,,,,,,,,,,,,,,,,,,,,,,,,,,16,A,2023-12-11_08h44.26.240,gca_avoidance_task,2022.2.4,143.87143653709293,
,,,,,,,,,17,0,17,0,,,,,,,,,,,,,,,,,,,,,,,,,,,,,,,,,,,,,183.6806043999968,183.6806043999968,183.6806043999968,183.6806043999968,183.6806043999968,183.6806043999968,6.0,1.136123400006909,g,12.218307500006631,196.40923349995865,,,,,,,,,,,,,,,,,,,,,,,,,,,,,,,,,,,,,,,,,,,,,,,,,,,,,,,,,,,,,,,,,,,,,,,,,,,,,,,,16,A,2023-12-11_08h44.26.240,gca_avoidance_task,2022.2.4,143.87143653709293,
,,,,,,,,,,,,,,,,,,,,,,,,,,,,,,,,,,,,,,,,,,,,,,,,,,,,,,,,,,,,,,,,,,,196.40923349995865,196.40923349995865,space,1.7129710000008345,,,,,,,,,,,,,,,,,,,,,,,,,,,,,,,,,,,,,,,,,,,,,,,,,,,,,,,,,,,,,,,,,,,,,16,A,2023-12-11_08h44.26.240,gca_avoidance_task,2022.2.4,143.87143653709293,
positions.xlsx,stimuli.xlsx,stimuli/Social1.png,stimuli/Social2.png,stimuli/Nonsocial1.png,stimuli/Nonsocial2.png,cs_minus_ns,,,,,,,0,0,0,0,0,0,0,3,,,,,,,,,,,,,,,,,,,,,,,,,,,,,,,,,,,,,,,,,,,,,,,,,,,266.6139487999608,266.6139487999608,space,48.972475299960934,315.64056119997986,315.64056119997986,326.2581935999915,6.0,11.109191600000486,space,2.1050439999671653,,,,,,,,,,,,,,,,,,,,,,,,,,,,,,,,,,,,,,,,,,,,,,,,,,,,,,,,,,16,A,2023-12-11_08h44.26.240,gca_avoidance_task,2022.2.4,143.87143653709293,
positions.xlsx,stimuli.xlsx,stimuli/Social1.png,stimuli/Social2.png,stimuli/Nonsocial1.png,stimuli/Nonsocial2.png,cs_plus_ns,,,,,,,0,0,0,0,0,1,1,1,,,,,,,,,,,,,,,,,,,,,,,,,,,,,,,,,,,,,,,,,,,,,,,,,,,,,,,328.4039307999774,328.4039307999774,331.6329822000116,4.0,3.2169463000027463,space,1.8735126000246964,,,,,,,,,,,,,,,,,,,,,,,,,,,,,,,,,,,,,,,,,,,,,,,,,,,,,,,,,,16,A,2023-12-11_08h44.26.240,gca_avoidance_task,2022.2.4,143.87143653709293,
positions.xlsx,stimuli.xlsx,stimuli/Social1.png,stimuli/Social2.png,stimuli/Nonsocial1.png,stimuli/Nonsocial2.png,cs_plus_s,,,,,,,0,0,0,0,0,2,2,0,,,,,,,,,,,,,,,,,,,,,,,,,,,,,,,,,,,,,,,,,,,,,,,,,,,,,,,333.5495419999934,333.5495419999934,337.06329849996837,8.0,3.5066365000093356,space,1.9644048000336625,,,,,,,,,,,,,,,,,,,,,,,,,,,,,,,,,,,,,,,,,,,,,,,,,,,,,,,,,,16,A,2023-12-11_08h44.26.240,gca_avoidance_task,2022.2.4,143.87143653709293,
positions.xlsx,stimuli.xlsx,stimuli/Social1.png,stimuli/Social2.png,stimuli/Nonsocial1.png,stimuli/Nonsocial2.png,cs_minus_s,,,,,,,0,0,0,0,0,3,3,2,,,,,,,,,,,,,,,,,,,,,,,,,,,,,,,,,,,,,,,,,,,,,,,,,,,,,,,339.0632428000099,339.0632428000099,342.2158482999657,5.0,3.143633499974385,space,1.7066033000010066,,,,,,,,,,,,,,,,,,,,,,,,,,,,,,,,,,,,,,,,,,,,,,,,,,,,,,,,,,16,A,2023-12-11_08h44.26.240,gca_avoidance_task,2022.2.4,143.87143653709293,
positions.xlsx,stimuli.xlsx,stimuli/Social1.png,stimuli/Social2.png,stimuli/Nonsocial1.png,stimuli/Nonsocial2.png,,"(0.7, 0.5)",cs_plus_ns,,,,,0,0,0,0,,,,,0,0,0,10,,,,,,,,,,,,,,,,,,,,,,,,,,,,,,,,,,,,,,,,,,,,,,,,,,,,,,,,,,343.9380564999883,343.9380564999883,space,21.92886099999305,368.84676609997405,370.0272396999644,368.35369560000254,370.0272396999644,370.0272396999644,370.0272396999644,0.01568260003114119,0.01980760000878945,0,shock,1,[0.18741740001132712],[0.18742110003950074],370.228655599989,370.228655599989,0.02195570000912994,0.02195570000912994,0.03218239999841899,0.05296130001079291,0.059875500039197505,0.10156280000228435,0.10851540003204718,1.0181725000147708,373.7076889000018,377.2978273999761,,,,,,,,,,,,,,,,,,,,,,,,,,,,,16,A,2023-12-11_08h44.26.240,gca_avoidance_task,2022.2.4,143.87143653709293,
positions.xlsx,stimuli.xlsx,stimuli/Social1.png,stimuli/Social2.png,stimuli/Nonsocial1.png,stimuli/Nonsocial2.png,,"(0.7, 0.5)",cs_minus_ns,,,,,0,0,0,0,,,,,0,1,1,14,,,,,,,,,,,,,,,,,,,,,,,,,,,,,,,,,,,,,,,,,,,,,,,,,,,,,,,,,,,,,,377.8047291999683,379.5268541999976,377.2978273999761,379.5268541999976,379.5268541999976,379.5268541999976,0.007077099988237023,0.013216699997428805,5,reward,1,[0.21596760000102222],[0.21597139997174963],379.7560223999899,379.7560223999899,0.008734000031836331,0.008734000031836331,0.025223799981176853,0.05295550002483651,0.059952399984467775,0.10155339998891577,0.10856130003230646,1.0042888000025414,383.2420107999933,387.63078629999654,,,,,,,,,,,,,,,,,,,,,,,,,,,,,16,A,2023-12-11_08h44.26.240,gca_avoidance_task,2022.2.4,143.87143653709293,
positions.xlsx,stimuli.xlsx,stimuli/Social1.png,stimuli/Social2.png,stimuli/Nonsocial1.png,stimuli/Nonsocial2.png,,"(0.7, -0.5)",cs_plus_ns,,,,,0,0,0,0,,,,,0,2,2,11,,,,,,,,,,,,,,,,,,,,,,,,,,,,,,,,,,,,,,,,,,,,,,,,,,,,,,,,,,,,,,388.1376144000096,389.7070068999892,387.63078629999654,389.7070068999892,389.7070068999892,389.7070068999892,0.007068200036883354,0.013343700033146888,5,shock,1,[4.222544400021434],[4.2225480999914],393.93599799997173,393.93599799997173,0.007826200046110898,0.007826200046110898,0.018244200036861002,0.05291369999758899,0.059869400050956756,0.10152150003705174,0.10847930004820228,1.0042708000401035,397.42899970000144,401.1787555000046,,,,,,,,,,,,,,,,,,,,,,,,,,,,,16,A,2023-12-11_08h44.26.240,gca_avoidance_task,2022.2.4,143.87143653709293,
positions.xlsx,stimuli.xlsx,stimuli/Social1.png,stimuli/Social2.png,stimuli/Nonsocial1.png,stimuli/Nonsocial2.png,,"(0.7, 0.5)",cs_plus_s,,,,,0,0,0,0,,,,,0,3,3,2,,,,,,,,,,,,,,,,,,,,,,,,,,,,,,,,,,,,,,,,,,,,,,,,,,,,,,,,,,,,,,401.68568900000537,403.505050799984,401.1787555000046,403.505050799984,403.505050799984,403.505050799984,0.006202800024766475,0.013213700032792985,5,shock,1,[0.42378330003703013],[0.4237870000069961],403.92869949998567,403.92869949998567,0.00720210000872612,0.00720210000872612,0.011614200018811971,0.05321510002249852,0.060171700024511665,0.10182360000908375,0.10877589997835457,1.004580500011798,407.42854870000156,411.4006105000153,,,,,,,,,,,,,,,,,,,,,,,,,,,,,16,A,2023-12-11_08h44.26.240,gca_avoidance_task,2022.2.4,143.87143653709293,
positions.xlsx,stimuli.xlsx,stimuli/Social1.png,stimuli/Social2.png,stimuli/Nonsocial1.png,stimuli/Nonsocial2.png,,"(-0.7, -0.5)",cs_minus_s,,,,,0,0,0,0,,,,,0,4,4,5,,,,,,,,,,,,,,,,,,,,,,,,,,,,,,,,,,,,,,,,,,,,,,,,,,,,,,,,,,,,,,411.90749000001233,413.3240836999612,411.4006105000153,413.3240836999612,413.3240836999612,413.3240836999612,0.006904000008944422,0.013258400023914874,10,reward,1,[0.4307307000271976],[0.43073419999564067],413.76158980000764,413.76158980000764,0.007669999962672591,0.007669999962672591,0.018889700004365295,0.053581499960273504,0.06053539999993518,0.10216519999084994,0.10912909999024123,1.0049478999571875,417.25454539997736,421.26132170000346,,,,,,,,,,,,,,,,,,,,,,,,,,,,,16,A,2023-12-11_08h44.26.240,gca_avoidance_task,2022.2.4,143.87143653709293,
positions.xlsx,stimuli.xlsx,stimuli/Social1.png,stimuli/Social2.png,stimuli/Nonsocial1.png,stimuli/Nonsocial2.png,,"(-0.7, 0.5)",cs_minus_s,,,,,0,0,0,0,,,,,0,5,5,4,,,,,,,,,,,,,,,,,,,,,,,,,,,,,,,,,,,,,,,,,,,,,,,,,,,,,,,,,,,,,,421.76822019997053,423.5389891999657,421.26132170000346,423.5389891999657,423.5389891999657,423.5389891999657,0.005939099995885044,0.013172700011637062,15,reward,1,[0.416934399981983],[0.4169382000109181],423.96263379999436,423.96263379999436,0.006932199990842491,0.006932199990842491,0.01881939999293536,0.05342239997116849,0.06037399999331683,0.1019718999741599,0.10903839999809861,1.004767999984324,427.4555121999583,431.4970891000121,,,,,,,,,,,,,,,,,,,,,,,,,,,,,16,A,2023-12-11_08h44.26.240,gca_avoidance_task,2022.2.4,143.87143653709293,
positions.xlsx,stimuli.xlsx,stimuli/Social1.png,stimuli/Social2.png,stimuli/Nonsocial1.png,stimuli/Nonsocial2.png,,"(-0.7, 0.5)",cs_plus_ns,,,,,0,0,0,0,,,,,0,6,6,8,,,,,,,,,,,,,,,,,,,,,,,,,,,,,,,,,,,,,,,,,,,,,,,,,,,,,,,,,,,,,,432.00389960000757,433.30941200000234,431.4970891000121,433.30941200000234,433.30941200000234,433.30941200000234,0.006685999978799373,0.013124299992341548,15,none,0,,,438.3231454999768,438.3231454999768,0.015051299997139722,0.015051299997139722,0.026860299985855818,0.05456729995785281,0.061552500003017485,0.10322609997820109,0.11015319998841733,1.0128804999985732,441.80917650001356,445.8714417999727,,,,,,,,,,,,,,,,,,,,,,,,,,,,,16,A,2023-12-11_08h44.26.240,gca_avoidance_task,2022.2.4,143.87143653709293,
positions.xlsx,stimuli.xlsx,stimuli/Social1.png,stimuli/Social2.png,stimuli/Nonsocial1.png,stimuli/Nonsocial2.png,,"(0.7, -0.5)",cs_minus_s,,,,,0,0,0,0,,,,,0,7,7,7,,,,,,,,,,,,,,,,,,,,,,,,,,,,,,,,,,,,,,,,,,,,,,,,,,,,,,,,,,,,,,446.3783334000036,448.36437269998714,445.8714417999727,448.36437269998714,448.36437269998714,448.36437269998714,0.00609239999903366,0.01307220000308007,20,reward,1,[0.39583990001119673],[0.39584389998344705],448.7740604999708,448.7740604999708,0.007052099972497672,0.007052099972497672,0.02569399995263666,0.05343109997920692,0.06040249997749925,0.10208939999574795,0.10901479999301955,1.0048118999693543,452.26007849996677,456.1418959000148,,,,,,,,,,,,,,,,,,,,,,,,,,,,,16,A,2023-12-11_08h44.26.240,gca_avoidance_task,2022.2.4,143.87143653709293,
positions.xlsx,stimuli.xlsx,stimuli/Social1.png,stimuli/Social2.png,stimuli/Nonsocial1.png,stimuli/Nonsocial2.png,,"(-0.7, -0.5)",cs_plus_s,,,,,0,0,0,0,,,,,0,8,8,1,,,,,,,,,,,,,,,,,,,,,,,,,,,,,,,,,,,,,,,,,,,,,,,,,,,,,,,,,,,,,,456.64879229996586,457.83620309998514,456.1418959000148,457.83620309998514,457.83620309998514,457.83620309998514,0.006866800016723573,0.012985700042918324,20,shock,1,[0.479239400010556],[0.4792431000387296],458.32233609998366,458.32233609998366,0.00731319998158142,0.00731319998158142,0.018542499979957938,0.05315130000235513,0.06015630002366379,0.10178239998640493,0.10873530001845211,1.0045137000270188,461.815265799989,466.19007989997044,,,,,,,,,,,,,,,,,,,,,,,,,,,,,16,A,2023-12-11_08h44.26.240,gca_avoidance_task,2022.2.4,143.87143653709293,
positions.xlsx,stimuli.xlsx,stimuli/Social1.png,stimuli/Social2.png,stimuli/Nonsocial1.png,stimuli/Nonsocial2.png,,"(0.7, -0.5)",cs_minus_ns,,,,,0,0,0,0,,,,,0,9,9,15,,,,,,,,,,,,,,,,,,,,,,,,,,,,,,,,,,,,,,,,,,,,,,,,,,,,,,,,,,,,,,466.6969645000063,468.46771549998084,466.19007989997044,468.46771549998084,468.46771549998084,468.46771549998084,0.006719199998769909,0.013075999973807484,25,reward,1,[0.6944659000146203],[0.6944821999641135],469.16906539996853,469.16906539996853,0.007712499995250255,0.007712499995250255,0.018794899981003255,0.053470299986656755,0.060425099974963814,0.10203710000496358,0.10900260001653805,1.004835300031118,472.6620790999732,476.2244084000122,,,,,,,,,,,,,,,,,,,,,,,,,,,,,16,A,2023-12-11_08h44.26.240,gca_avoidance_task,2022.2.4,143.87143653709293,
positions.xlsx,stimuli.xlsx,stimuli/Social1.png,stimuli/Social2.png,stimuli/Nonsocial1.png,stimuli/Nonsocial2.png,,"(-0.7, 0.5)",cs_minus_ns,,,,,0,0,0,0,,,,,0,10,10,12,,,,,,,,,,,,,,,,,,,,,,,,,,,,,,,,,,,,,,,,,,,,,,,,,,,,,,,,,,,,,,476.73126989998855,477.95341620000545,476.2244084000122,477.95341620000545,477.95341620000545,477.95341620000545,0.006338500010315329,0.013090599968563765,30,reward,1,[0.5629859999753535],[0.5629895000020042],478.52291900001,478.52291900001,0.007176600047387183,0.007176600047387183,0.018611700041219592,0.05323680001311004,0.06017060001613572,0.10183280002092943,0.10878890001913533,1.0045504000154324,482.0157967999694,486.2378820999875,,,,,,,,,,,,,,,,,,,,,,,,,,,,,16,A,2023-12-11_08h44.26.240,gca_avoidance_task,2022.2.4,143.87143653709293,
positions.xlsx,stimuli.xlsx,stimuli/Social1.png,stimuli/Social2.png,stimuli/Nonsocial1.png,stimuli/Nonsocial2.png,,"(-0.7, -0.5)",cs_plus_ns,,,,,0,0,0,0,,,,,0,11,11,9,,,,,,,,,,,,,,,,,,,,,,,,,,,,,,,,,,,,,,,,,,,,,,,,,,,,,,,,,,,,,,486.7447847999865,487.91137579997303,486.2378820999875,487.91137579997303,487.91137579997303,487.91137579997303,0.007162699999753386,0.013187500007916242,30,none,0,,,492.9250877999584,492.9250877999584,0.014522199984639883,0.014522199984639883,0.026906899991445243,0.054621400020550936,0.061558599991258234,0.10323370003607124,0.11018090002471581,1.0129525000229478,496.4110496999929,500.17482640000526,,,,,,,,,,,,,,,,,,,,,,,,,,,,,16,A,2023-12-11_08h44.26.240,gca_avoidance_task,2022.2.4,143.87143653709293,
positions.xlsx,stimuli.xlsx,stimuli/Social1.png,stimuli/Social2.png,stimuli/Nonsocial1.png,stimuli/Nonsocial2.png,,"(-0.7, -0.5)",cs_minus_ns,,,,,0,0,0,0,,,,,0,12,12,13,,,,,,,,,,,,,,,,,,,,,,,,,,,,,,,,,,,,,,,,,,,,,,,,,,,,,,,,,,,,,,500.68170339998323,501.9247066999669,500.17482640000526,501.9247066999669,501.9247066999669,501.9247066999669,0.006991499976720661,0.01342640002258122,35,reward,1,[0.6531518999836408],[0.6531554000102915],502.5844282999751,502.5844282999751,0.0073241000063717365,0.0073241000063717365,0.018554700014647096,0.05317900003865361,0.060119800036773086,0.10177330003352836,0.1087365000275895,1.0045091999927536,506.0774030999746,510.0911064000102,,,,,,,,,,,,,,,,,,,,,,,,,,,,,16,A,2023-12-11_08h44.26.240,gca_avoidance_task,2022.2.4,143.87143653709293,
positions.xlsx,stimuli.xlsx,stimuli/Social1.png,stimuli/Social2.png,stimuli/Nonsocial1.png,stimuli/Nonsocial2.png,,"(0.7, -0.5)",cs_plus_s,,,,,0,0,0,0,,,,,0,13,13,3,,,,,,,,,,,,,,,,,,,,,,,,,,,,,,,,,,,,,,,,,,,,,,,,,,,,,,,,,,,,,,510.597961499996,512.5562238999992,510.0911064000102,512.5562238999992,512.5562238999992,512.5562238999992,0.0063233000109903514,0.01286479999544099,35,none,0,,,517.5629378000158,517.5629378000158,0.013161899987608194,0.013161899987608194,0.01953029999276623,0.0542219000053592,0.06119490001583472,0.10287569998763502,0.1098100999952294,1.0125448000035249,521.05584310001,525.1460281999898,,,,,,,,,,,,,,,,,,,,,,,,,,,,,16,A,2023-12-11_08h44.26.240,gca_avoidance_task,2022.2.4,143.87143653709293,
positions.xlsx,stimuli.xlsx,stimuli/Social1.png,stimuli/Social2.png,stimuli/Nonsocial1.png,stimuli/Nonsocial2.png,,"(-0.7, 0.5)",cs_plus_s,,,,,0,0,0,0,,,,,0,14,14,0,,,,,,,,,,,,,,,,,,,,,,,,,,,,,,,,,,,,,,,,,,,,,,,,,,,,,,,,,,,,,,525.6529173000017,527.3612013999955,525.1460281999898,527.3612013999955,527.3612013999955,527.3612013999955,0.006504799996037036,0.013050700013991445,35,none,0,,,532.367950099986,532.367950099986,0.013054799987003207,0.013054799987003207,0.01980629999889061,0.054492599971126765,0.06150539999362081,0.10310020000906661,0.11004030000185594,1.012846499972511,535.8608469999745,540.0481797999819,,,,,,,,,,,,,,,,,,,,,,,,,,,,,16,A,2023-12-11_08h44.26.240,gca_avoidance_task,2022.2.4,143.87143653709293,
positions.xlsx,stimuli.xlsx,stimuli/Social1.png,stimuli/Social2.png,stimuli/Nonsocial1.png,stimuli/Nonsocial2.png,,"(0.7, 0.5)",cs_minus_s,,,,,0,0,0,0,,,,,0,15,15,6,,,,,,,,,,,,,,,,,,,,,,,,,,,,,,,,,,,,,,,,,,,,,,,,,,,,,,,,,,,,,,540.5551033999654,542.5411036000005,540.0481797999819,542.5411036000005,542.5411036000005,542.5411036000005,0.006185100006405264,0.013398900046013296,40,reward,1,[0.5212131000007503],[0.5212171000312082],543.0688914000057,543.0688914000057,0.00729390000924468,0.00729390000924468,0.018276799994055182,0.05299689999083057,0.05997709999792278,0.10155190003570169,0.10853460000362247,1.004294399986975,546.5618554999819,550.1242054000031,,,,,,,,,,,,,,,,,,,,,,,,,,,,,16,A,2023-12-11_08h44.26.240,gca_avoidance_task,2022.2.4,143.87143653709293,
positions.xlsx,stimuli.xlsx,stimuli/Social1.png,stimuli/Social2.png,stimuli/Nonsocial1.png,stimuli/Nonsocial2.png,,"(0.7, 0.5)",cs_plus_ns,,,,,0,0,0,0,,,,,1,0,16,10,,,,,,,,,,,,,,,,,,,,,,,,,,,,,,,,,,,,,,,,,,,,,,,,,,,,,,,,,,,,,,550.6310704000061,552.3463040000061,550.1242054000031,552.3463040000061,552.3463040000061,552.3463040000061,0.006342099979519844,0.013059799966868013,40,none,0,,,557.3530093000154,557.3530093000154,0.014186699991114438,0.014186699991114438,0.019788599980529398,0.05447679996723309,0.061432199960108846,0.10314179997658357,0.11007599998265505,1.0127682999591343,560.8459591999999,564.8735860000015,,,,,,,,,,,,,,,,,,,,,,,,,,,,,16,A,2023-12-11_08h44.26.240,gca_avoidance_task,2022.2.4,143.87143653709293,
positions.xlsx,stimuli.xlsx,stimuli/Social1.png,stimuli/Social2.png,stimuli/Nonsocial1.png,stimuli/Nonsocial2.png,,"(-0.7, -0.5)",cs_plus_ns,,,,,0,0,0,0,,,,,1,1,17,9,,,,,,,,,,,,,,,,,,,,,,,,,,,,,,,,,,,,,,,,,,,,,,,,,,,,,,,,,,,,,,565.3804932999774,567.3734809999587,564.8735860000015,567.3734809999587,567.3734809999587,567.3734809999587,0.007430500001646578,0.013490699988324195,40,none,0,,,572.3802285999991,572.3802285999991,0.015068500011693686,0.015068500011693686,0.02024340000934899,0.054879200004506856,0.06184630002826452,0.10350850003305823,0.11050000000977889,1.0132422000169754,575.8731958999997,579.5674212999875,,,,,,,,,,,,,,,,,,,,,,,,,,,,,16,A,2023-12-11_08h44.26.240,gca_avoidance_task,2022.2.4,143.87143653709293,
positions.xlsx,stimuli.xlsx,stimuli/Social1.png,stimuli/Social2.png,stimuli/Nonsocial1.png,stimuli/Nonsocial2.png,,"(0.7, 0.5)",cs_plus_s,,,,,0,0,0,0,,,,,1,2,18,2,,,,,,,,,,,,,,,,,,,,,,,,,,,,,,,,,,,,,,,,,,,,,,,,,,,,,,,,,,,,,,580.074358999962,581.9075961000053,579.5674212999875,581.9075961000053,581.9075961000053,581.9075961000053,0.0064641000353731215,0.013139199989382178,40,none,0,,,586.9143609000021,586.9143609000021,0.013367799983825535,0.013367799983825535,0.019911599985789508,0.054611100000329316,0.06159280001884326,0.10324219998437911,0.11017230001743883,1.012868600024376,590.4072557999752,594.2335121000069,,,,,,,,,,,,,,,,,,,,,,,,,,,,,16,A,2023-12-11_08h44.26.240,gca_avoidance_task,2022.2.4,143.87143653709293,
positions.xlsx,stimuli.xlsx,stimuli/Social1.png,stimuli/Social2.png,stimuli/Nonsocial1.png,stimuli/Nonsocial2.png,,"(0.7, 0.5)",cs_minus_ns,,,,,0,0,0,0,,,,,1,3,19,14,,,,,,,,,,,,,,,,,,,,,,,,,,,,,,,,,,,,,,,,,,,,,,,,,,,,,,,,,,,,,,594.7404282999923,596.0181527999812,594.2335121000069,596.0181527999812,596.0181527999812,596.0181527999812,0.006667799956630915,0.013107999984640628,45,reward,1,[0.597081599989906],[0.5970980999991298],596.6223094000015,596.6223094000015,0.007411699974909425,0.007411699974909425,0.01870399998733774,0.0533461999730207,0.06030010001268238,0.10193780000554398,0.10896829998819157,1.0047025000094436,600.1152401000145,603.6498434999958,,,,,,,,,,,,,,,,,,,,,,,,,,,,,16,A,2023-12-11_08h44.26.240,gca_avoidance_task,2022.2.4,143.87143653709293,
positions.xlsx,stimuli.xlsx,stimuli/Social1.png,stimuli/Social2.png,stimuli/Nonsocial1.png,stimuli/Nonsocial2.png,,"(-0.7, 0.5)",cs_plus_s,,,,,0,0,0,0,,,,,1,4,20,0,,,,,,,,,,,,,,,,,,,,,,,,,,,,,,,,,,,,,,,,,,,,,,,,,,,,,,,,,,,,,,604.1566762999864,605.6080480999663,603.6498434999958,605.6080480999663,605.6080480999663,605.6080480999663,0.006147799955215305,0.012988100002985448,45,none,0,,,610.6147577000083,610.6147577000083,0.013501999957952648,0.013501999957952648,0.01970249996520579,0.054393399972468615,0.061369000002741814,0.10302239999873564,0.10992129996884614,1.0127187999896705,614.1077552000061,617.6770783999818,,,,,,,,,,,,,,,,,,,,,,,,,,,,,16,A,2023-12-11_08h44.26.240,gca_avoidance_task,2022.2.4,143.87143653709293,
positions.xlsx,stimuli.xlsx,stimuli/Social1.png,stimuli/Social2.png,stimuli/Nonsocial1.png,stimuli/Nonsocial2.png,,"(0.7, -0.5)",cs_plus_ns,,,,,0,0,0,0,,,,,1,5,21,11,,,,,,,,,,,,,,,,,,,,,,,,,,,,,,,,,,,,,,,,,,,,,,,,,,,,,,,,,,,,,,618.1839237000095,619.52412919997,617.6770783999818,619.52412919997,619.52412919997,619.52412919997,0.006712900009006262,0.013119200011715293,45,none,0,,,624.5309099999722,624.5309099999722,0.014514499984215945,0.014514499984215945,0.01990860002115369,0.05456750001758337,0.06155360001139343,0.1031638000276871,0.11017820000415668,1.0128574999980628,628.0238149999641,631.5654073999613,,,,,,,,,,,,,,,,,,,,,,,,,,,,,16,A,2023-12-11_08h44.26.240,gca_avoidance_task,2022.2.4,143.87143653709293,
positions.xlsx,stimuli.xlsx,stimuli/Social1.png,stimuli/Social2.png,stimuli/Nonsocial1.png,stimuli/Nonsocial2.png,,"(-0.7, 0.5)",cs_minus_ns,,,,,0,0,0,0,,,,,1,6,22,12,,,,,,,,,,,,,,,,,,,,,,,,,,,,,,,,,,,,,,,,,,,,,,,,,,,,,,,,,,,,,,632.0722627000068,633.8777724999818,631.5654073999613,633.8777724999818,633.8777724999818,633.8777724999818,0.006500400020740926,0.01317140000173822,50,reward,1,[0.4722262999857776],[0.4722302000154741],634.3569164999644,634.3569164999644,0.007911599997896701,0.007911599997896701,0.018575699999928474,0.05329650000203401,0.06018909998238087,0.101792800007388,0.10877539997454733,1.0046135999727994,637.8498829999589,641.9747040999937,,,,,,,,,,,,,,,,,,,,,,,,,,,,,16,A,2023-12-11_08h44.26.240,gca_avoidance_task,2022.2.4,143.87143653709293,
positions.xlsx,stimuli.xlsx,stimuli/Social1.png,stimuli/Social2.png,stimuli/Nonsocial1.png,stimuli/Nonsocial2.png,,"(0.7, -0.5)",cs_plus_s,,,,,0,0,0,0,,,,,1,7,23,3,,,,,,,,,,,,,,,,,,,,,,,,,,,,,,,,,,,,,,,,,,,,,,,,,,,,,,,,,,,,,,642.4815515999799,643.9398374999873,641.9747040999937,643.9398374999873,643.9398374999873,643.9398374999873,0.006632300035562366,0.013419100025203079,50,none,0,,,648.9465748000075,648.9465748000075,0.014647600008174777,0.014647600008174777,0.020133200043346733,0.0548803000128828,0.0618114999961108,0.10349530004896224,0.11038399999961257,1.0131649000104517,652.439578999998,656.3213298000046,,,,,,,,,,,,,,,,,,,,,,,,,,,,,16,A,2023-12-11_08h44.26.240,gca_avoidance_task,2022.2.4,143.87143653709293,
positions.xlsx,stimuli.xlsx,stimuli/Social1.png,stimuli/Social2.png,stimuli/Nonsocial1.png,stimuli/Nonsocial2.png,,"(-0.7, -0.5)",cs_minus_ns,,,,,0,0,0,0,,,,,1,8,24,13,,,,,,,,,,,,,,,,,,,,,,,,,,,,,,,,,,,,,,,,,,,,,,,,,,,,,,,,,,,,,,656.828233200009,658.6337170999614,656.3213298000046,658.6337170999614,658.6337170999614,658.6337170999614,0.007206399983260781,0.013091700035147369,55,reward,1,[0.562357900023926],[0.5623617999954149],659.2030806000112,659.2030806000112,0.0077729999902658165,0.0077729999902658165,0.01878220000071451,0.05346819997066632,0.06042579998029396,0.10207689995877445,0.10901969997212291,1.0048338999622501,662.6960351999733,666.8972943999688,,,,,,,,,,,,,,,,,,,,,,,,,,,,,16,A,2023-12-11_08h44.26.240,gca_avoidance_task,2022.2.4,143.87143653709293,
positions.xlsx,stimuli.xlsx,stimuli/Social1.png,stimuli/Social2.png,stimuli/Nonsocial1.png,stimuli/Nonsocial2.png,,"(-0.7, 0.5)",cs_minus_s,,,,,0,0,0,0,,,,,1,9,25,4,,,,,,,,,,,,,,,,,,,,,,,,,,,,,,,,,,,,,,,,,,,,,,,,,,,,,,,,,,,,,,667.4041967999656,668.4666556000011,666.8972943999688,668.4666556000011,668.4666556000011,668.4666556000011,0.005870199995115399,0.013157799956388772,60,reward,1,[0.9861386999837123],[0.9861426999559626],669.4596488999669,669.4596488999669,0.006743899954017252,0.006743899954017252,0.018959699955303222,0.053606399975251406,0.06054699997184798,0.10217289999127388,0.10915319999912754,1.0049582999781705,672.9526058000047,676.9107796999742,,,,,,,,,,,,,,,,,,,,,,,,,,,,,16,A,2023-12-11_08h44.26.240,gca_avoidance_task,2022.2.4,143.87143653709293,
positions.xlsx,stimuli.xlsx,stimuli/Social1.png,stimuli/Social2.png,stimuli/Nonsocial1.png,stimuli/Nonsocial2.png,,"(-0.7, 0.5)",cs_plus_ns,,,,,0,0,0,0,,,,,1,10,26,8,,,,,,,,,,,,,,,,,,,,,,,,,,,,,,,,,,,,,,,,,,,,,,,,,,,,,,,,,,,,,,677.4176368999761,679.0078619999695,676.9107796999742,679.0078619999695,679.0078619999695,679.0078619999695,0.00683180004125461,0.013414099987130612,60,none,0,,,684.0146256000153,684.0146256000153,0.014457300014328212,0.014457300014328212,0.020172799995634705,0.054866100021172315,0.061823800031561404,0.10349010000936687,0.11041970003861934,1.0131655000150204,687.5075628999621,691.9032413999666,,,,,,,,,,,,,,,,,,,,,,,,,,,,,16,A,2023-12-11_08h44.26.240,gca_avoidance_task,2022.2.4,143.87143653709293,
positions.xlsx,stimuli.xlsx,stimuli/Social1.png,stimuli/Social2.png,stimuli/Nonsocial1.png,stimuli/Nonsocial2.png,,"(-0.7, -0.5)",cs_minus_s,,,,,0,0,0,0,,,,,1,11,27,5,,,,,,,,,,,,,,,,,,,,,,,,,,,,,,,,,,,,,,,,,,,,,,,,,,,,,,,,,,,,,,692.4100741000148,693.6739473000052,691.9032413999666,693.6739473000052,693.6739473000052,693.6739473000052,0.006103200023062527,0.013116099988110363,65,reward,1,[0.47239180002361536],[0.4723953999928199],694.1530956999632,694.1530956999632,0.0073586999787949026,0.0073586999787949026,0.01830820000031963,0.052994699974078685,0.05996959999902174,0.10166379995644093,0.1085616999771446,1.0043704999843612,697.6460999000119,701.9653580000158,,,,,,,,,,,,,,,,,,,,,,,,,,,,,16,A,2023-12-11_08h44.26.240,gca_avoidance_task,2022.2.4,143.87143653709293,
positions.xlsx,stimuli.xlsx,stimuli/Social1.png,stimuli/Social2.png,stimuli/Nonsocial1.png,stimuli/Nonsocial2.png,,"(0.7, -0.5)",cs_minus_ns,,,,,0,0,0,0,,,,,1,12,28,15,,,,,,,,,,,,,,,,,,,,,,,,,,,,,,,,,,,,,,,,,,,,,,,,,,,,,,,,,,,,,,702.4722035999876,703.8263367000036,701.9653580000158,703.8263367000036,703.8263367000036,703.8263367000036,0.006456199975218624,0.013372700021136552,70,reward,1,[0.5142165999859571],[0.5142205000156537],704.3540922999964,704.3540922999964,0.00801549997413531,0.00801549997413531,0.025531699997372925,0.053224499977659434,0.06021129997679964,0.10183739999774843,0.10878389998106286,1.0046167999971658,707.840081900009,712.0413416000083,,,,,,,,,,,,,,,,,,,,,,,,,,,,,16,A,2023-12-11_08h44.26.240,gca_avoidance_task,2022.2.4,143.87143653709293,
positions.xlsx,stimuli.xlsx,stimuli/Social1.png,stimuli/Social2.png,stimuli/Nonsocial1.png,stimuli/Nonsocial2.png,,"(-0.7, -0.5)",cs_plus_s,,,,,0,0,0,0,,,,,1,13,29,1,,,,,,,,,,,,,,,,,,,,,,,,,,,,,,,,,,,,,,,,,,,,,,,,,,,,,,,,,,,,,,712.5481982000056,714.0619932999834,712.0413416000083,714.0619932999834,714.0619932999834,714.0619932999834,0.006893099984154105,0.012818299990613014,70,none,0,,,719.0688110999763,719.0688110999763,0.012908999982755631,0.012908999982755631,0.019671000016387552,0.05424010002752766,0.061217800015583634,0.10288880002917722,0.10984980000648648,1.0125647999811918,722.5617425999953,726.1379671999603,,,,,,,,,,,,,,,,,,,,,,,,,,,,,16,A,2023-12-11_08h44.26.240,gca_avoidance_task,2022.2.4,143.87143653709293,
positions.xlsx,stimuli.xlsx,stimuli/Social1.png,stimuli/Social2.png,stimuli/Nonsocial1.png,stimuli/Nonsocial2.png,,"(0.7, 0.5)",cs_minus_s,,,,,0,0,0,0,,,,,1,14,30,6,,,,,,,,,,,,,,,,,,,,,,,,,,,,,,,,,,,,,,,,,,,,,,,,,,,,,,,,,,,,,,726.6448482999695,727.9781684000045,726.1379671999603,727.9781684000045,727.9781684000045,727.9781684000045,0.006793899985495955,0.013311600021552294,75,reward,1,[0.653124000004027],[0.6531279999762774],728.6378544999752,728.6378544999752,0.006855199986603111,0.006855199986603111,0.018268599989823997,0.05291349999606609,0.05983579996973276,0.10147639998467639,0.10845790000166744,1.00427919998765,732.1307657000143,736.3875552999671,,,,,,,,,,,,,,,,,,,,,,,,,,,,,16,A,2023-12-11_08h44.26.240,gca_avoidance_task,2022.2.4,143.87143653709293,
positions.xlsx,stimuli.xlsx,stimuli/Social1.png,stimuli/Social2.png,stimuli/Nonsocial1.png,stimuli/Nonsocial2.png,,"(0.7, -0.5)",cs_minus_s,,,,,0,0,0,0,,,,,1,15,31,7,,,,,,,,,,,,,,,,,,,,,,,,,,,,,,,,,,,,,,,,,,,,,,,,,,,,,,,,,,,,,,736.8944441999774,738.5471592000104,736.3875552999671,738.5471592000104,738.5471592000104,738.5471592000104,0.005852700036484748,0.013414900051429868,80,reward,1,[0.5836638000328094],[0.583667200000491],739.1374062999967,739.1374062999967,0.006631100026424974,0.006631100026424974,0.01881940005114302,0.05353190004825592,0.06045230000745505,0.10213000001385808,0.10909830004675314,1.0048662000335753,742.630360799958,746.171847599966,,,,,,,,,,,,,,,,,,,,,,,,,,,,,16,A,2023-12-11_08h44.26.240,gca_avoidance_task,2022.2.4,143.87143653709293,
positions.xlsx,stimuli.xlsx,stimuli/Social1.png,stimuli/Social2.png,stimuli/Nonsocial1.png,stimuli/Nonsocial2.png,,"(-0.7, -0.5)",cs_plus_s,,,,,0,0,0,0,,,,,,,,,0,0,0,1,,,,,,,,,,,,,,,,,,,,,,,,,,,,,,,,,,,,,,,,,,,,,,,,,,,,,,,,,,759.0810592999915,760.796301800001,758.5810831999988,760.796301800001,760.796301800001,760.796301800001,0.005848300002980977,0.013021000020671636,80,shock,1,[1.5208494000253268],[1.520853399997577],762.3239737999975,762.3239737999975,0.007273100025486201,0.007273100025486201,0.01796000002650544,0.052603500022087246,0.059589200012851506,0.10128240002086386,0.10822990001179278,1.0039761000080034,765.8168992999708,770.0667640999891,746.171847599966,746.171847599966,746.171847599966,746.171847599966,space,10.4961248000036,,,,,,,,,,,,,,,,,,,,,,,16,A,2023-12-11_08h44.26.240,gca_avoidance_task,2022.2.4,143.87143653709293,
positions.xlsx,stimuli.xlsx,stimuli/Social1.png,stimuli/Social2.png,stimuli/Nonsocial1.png,stimuli/Nonsocial2.png,,"(-0.7, -0.5)",cs_plus_ns,,,,,0,0,0,0,,,,,,,,,0,1,1,9,,,,,,,,,,,,,,,,,,,,,,,,,,,,,,,,,,,,,,,,,,,,,,,,,,,,,,,,,,770.5736546000117,771.5875207000063,770.0667640999891,771.5875207000063,771.5875207000063,771.5875207000063,0.006530700018629432,0.01289160002488643,80,shock,1,[1.3401478999876417],[1.3401518000173382],772.9346771999844,772.9346771999844,0.008534300024621189,0.008534300024621189,0.018510000023525208,0.05314790003467351,0.060165900038555264,0.1017812000354752,0.10872680001193658,1.004529200028628,776.4276018000091,780.8927817000076,,,,,,,,,,,,,,,,,,,,,,,,,,,,,16,A,2023-12-11_08h44.26.240,gca_avoidance_task,2022.2.4,143.87143653709293,
positions.xlsx,stimuli.xlsx,stimuli/Social1.png,stimuli/Social2.png,stimuli/Nonsocial1.png,stimuli/Nonsocial2.png,,"(-0.7, -0.5)",cs_minus_s,,,,,0,0,0,0,,,,,,,,,0,2,2,5,,,,,,,,,,,,,,,,,,,,,,,,,,,,,,,,,,,,,,,,,,,,,,,,,,,,,,,,,,781.3996353999828,782.7189991999767,780.8927817000076,782.7189991999767,782.7189991999767,782.7189991999767,0.006236199988052249,0.01328399998601526,85,reward,1,[0.8751367999939248],[0.8751405000220984],783.6009282000014,783.6009282000014,0.00699030002579093,0.00699030002579093,0.01872600003844127,0.05341880000196397,0.060385200020391494,0.1019858000217937,0.10898930003168061,1.0047131000319496,787.0938655000064,790.9826105000102,,,,,,,,,,,,,,,,,,,,,,,,,,,,,16,A,2023-12-11_08h44.26.240,gca_avoidance_task,2022.2.4,143.87143653709293,
positions.xlsx,stimuli.xlsx,stimuli/Social1.png,stimuli/Social2.png,stimuli/Nonsocial1.png,stimuli/Nonsocial2.png,,"(0.7, 0.5)",cs_minus_ns,,,,,0,0,0,0,,,,,,,,,0,3,3,14,,,,,,,,,,,,,,,,,,,,,,,,,,,,,,,,,,,,,,,,,,,,,,,,,,,,,,,,,,791.4894607999595,793.2532883000094,790.9826105000102,793.2532883000094,793.2532883000094,793.2532883000094,0.00724349997472018,0.013092399982269853,90,reward,1,[0.5210270999814384],[0.521030800009612],793.7811137000099,793.7811137000099,0.008026299998164177,0.008026299998164177,0.018638100009411573,0.053208199969958514,0.060223500011488795,0.10182340000756085,0.10879849997581914,1.004587100003846,797.2739979999606,801.3502252000035,,,,,,,,,,,,,,,,,,,,,,,,,,,,,16,A,2023-12-11_08h44.26.240,gca_avoidance_task,2022.2.4,143.87143653709293,
positions.xlsx,stimuli.xlsx,stimuli/Social1.png,stimuli/Social2.png,stimuli/Nonsocial1.png,stimuli/Nonsocial2.png,,"(0.7, 0.5)",cs_plus_ns,,,,,0,0,0,0,,,,,,,,,0,4,4,10,,,,,,,,,,,,,,,,,,,,,,,,,,,,,,,,,,,,,,,,,,,,,,,,,,,,,,,,,,801.8571261999896,803.8084509999608,801.3502252000035,803.8084509999608,803.8084509999608,803.8084509999608,0.007123699993826449,0.013196200015954673,90,none,0,,,808.8151623000158,808.8151623000158,0.013820799998939037,0.013820799998939037,0.019872099976055324,0.054612600011751056,0.06151349999709055,0.10322460002498701,0.1101314999978058,1.0128419999964535,812.3080851999694,816.2315816999762,,,,,,,,,,,,,,,,,,,,,,,,,,,,,16,A,2023-12-11_08h44.26.240,gca_avoidance_task,2022.2.4,143.87143653709293,
positions.xlsx,stimuli.xlsx,stimuli/Social1.png,stimuli/Social2.png,stimuli/Nonsocial1.png,stimuli/Nonsocial2.png,,"(-0.7, -0.5)",cs_minus_ns,,,,,0,0,0,0,,,,,,,,,0,5,5,13,,,,,,,,,,,,,,,,,,,,,,,,,,,,,,,,,,,,,,,,,,,,,,,,,,,,,,,,,,816.7384640999953,818.5995180999744,816.2315816999762,818.5995180999744,818.5995180999744,818.5995180999744,0.006565599993336946,0.013014200027100742,95,reward,1,[0.4652011999860406],[0.4652047000126913],819.0716975000105,819.0716975000105,0.007181699969805777,0.007181699969805777,0.01849339995533228,0.05316599999787286,0.06015629996545613,0.10185529995942488,0.10879949998343363,1.0045485000009649,822.5646420000121,826.5575272999704,,,,,,,,,,,,,,,,,,,,,,,,,,,,,16,A,2023-12-11_08h44.26.240,gca_avoidance_task,2022.2.4,143.87143653709293,
positions.xlsx,stimuli.xlsx,stimuli/Social1.png,stimuli/Social2.png,stimuli/Nonsocial1.png,stimuli/Nonsocial2.png,,"(0.7, 0.5)",cs_minus_s,,,,,0,0,0,0,,,,,,,,,0,6,6,6,,,,,,,,,,,,,,,,,,,,,,,,,,,,,,,,,,,,,,,,,,,,,,,,,,,,,,,,,,827.0644397999858,828.4254853999591,826.5575272999704,828.4254853999591,828.4254853999591,828.4254853999591,0.006265399977564812,0.013342800026293844,100,reward,1,[0.5837243999703787],[0.5837281999993138],829.0157443999778,829.0157443999778,0.0069404999958351254,0.0069404999958351254,0.01835720002418384,0.05304189998423681,0.059983299986924976,0.10163499996997416,0.10867049999069422,1.0043987999670208,832.5087109999731,836.8835569999646,,,,,,,,,,,,,,,,,,,,,,,,,,,,,16,A,2023-12-11_08h44.26.240,gca_avoidance_task,2022.2.4,143.87143653709293,
positions.xlsx,stimuli.xlsx,stimuli/Social1.png,stimuli/Social2.png,stimuli/Nonsocial1.png,stimuli/Nonsocial2.png,,"(0.7, -0.5)",cs_plus_s,,,,,0,0,0,0,,,,,,,,,0,7,7,3,,,,,,,,,,,,,,,,,,,,,,,,,,,,,,,,,,,,,,,,,,,,,,,,,,,,,,,,,,837.390397799958,839.2306084999582,836.8835569999646,839.2306084999582,839.2306084999582,839.2306084999582,0.0061434999806806445,0.013410399958956987,100,none,0,,,844.2374083999894,844.2374083999894,0.013695199973881245,0.013695199973881245,0.020216699980665,0.05482109996955842,0.06184039998333901,0.10345929994946346,0.11040329997194931,1.0131343999528326,847.7303078999976,851.8968118999619,,,,,,,,,,,,,,,,,,,,,,,,,,,,,16,A,2023-12-11_08h44.26.240,gca_avoidance_task,2022.2.4,143.87143653709293,
positions.xlsx,stimuli.xlsx,stimuli/Social1.png,stimuli/Social2.png,stimuli/Nonsocial1.png,stimuli/Nonsocial2.png,,"(-0.7, 0.5)",cs_plus_ns,,,,,0,0,0,0,,,,,,,,,0,8,8,8,,,,,,,,,,,,,,,,,,,,,,,,,,,,,,,,,,,,,,,,,,,,,,,,,,,,,,,,,,852.4036982000107,854.3202978000045,851.8968118999619,854.3202978000045,854.3202978000045,854.3202978000045,0.006627599999774247,0.013264600012917072,100,none,0,,,859.3270538999932,859.3270538999932,0.014786800020374358,0.014786800020374358,0.019998300005681813,0.05470989999594167,0.061678400030359626,0.10324210004182532,0.11022120004054159,1.0129708999884315,862.8200441999943,866.9726028000005,,,,,,,,,,,,,,,,,,,,,,,,,,,,,16,A,2023-12-11_08h44.26.240,gca_avoidance_task,2022.2.4,143.87143653709293,
positions.xlsx,stimuli.xlsx,stimuli/Social1.png,stimuli/Social2.png,stimuli/Nonsocial1.png,stimuli/Nonsocial2.png,,"(0.7, 0.5)",cs_plus_s,,,,,0,0,0,0,,,,,,,,,0,9,9,2,,,,,,,,,,,,,,,,,,,,,,,,,,,,,,,,,,,,,,,,,,,,,,,,,,,,,,,,,,867.4794800999807,869.3544394999626,866.9726028000005,869.3544394999626,869.3544394999626,869.3544394999626,0.005807699984870851,0.013114900037180632,100,none,0,,,874.3611856999923,874.3611856999923,0.013664400030393153,0.013664400030393153,0.019867199996951967,0.054504700005054474,0.06147910002619028,0.10309300001244992,0.11006560001987964,1.0127604000153951,877.8541356999776,881.9650617999723,,,,,,,,,,,,,,,,,,,,,,,,,,,,,16,A,2023-12-11_08h44.26.240,gca_avoidance_task,2022.2.4,143.87143653709293,
positions.xlsx,stimuli.xlsx,stimuli/Social1.png,stimuli/Social2.png,stimuli/Nonsocial1.png,stimuli/Nonsocial2.png,,"(0.7, -0.5)",cs_minus_ns,,,,,0,0,0,0,,,,,,,,,0,10,10,15,,,,,,,,,,,,,,,,,,,,,,,,,,,,,,,,,,,,,,,,,,,,,,,,,,,,,,,,,,882.4719143999973,884.1315888999961,881.9650617999723,884.1315888999961,884.1315888999961,884.1315888999961,0.006387299974448979,0.013060499972198159,105,reward,1,[0.7363973999745212],[0.7364012000034563],884.874639799993,884.874639799993,0.007232000003568828,0.007232000003568828,0.01780030003283173,0.05248559999745339,0.05944209999870509,0.101103900000453,0.10803390003275126,1.003823300008662,888.367576699995,892.0757581999642,,,,,,,,,,,,,,,,,,,,,,,,,,,,,16,A,2023-12-11_08h44.26.240,gca_avoidance_task,2022.2.4,143.87143653709293,
positions.xlsx,stimuli.xlsx,stimuli/Social1.png,stimuli/Social2.png,stimuli/Nonsocial1.png,stimuli/Nonsocial2.png,,"(-0.7, 0.5)",cs_minus_ns,,,,,0,0,0,0,,,,,,,,,0,11,11,12,,,,,,,,,,,,,,,,,,,,,,,,,,,,,,,,,,,,,,,,,,,,,,,,,,,,,,,,,,892.5826444000122,894.2492465999676,892.0757581999642,894.2492465999676,894.2492465999676,894.2492465999676,0.006466999999247491,0.012917799991555512,110,reward,1,[0.5695352000184357],[0.5764155000215396],894.8325835000142,894.8325835000142,0.0073247000109404325,0.0073247000109404325,0.018233100010547787,0.052898599999025464,0.05979410000145435,0.10146699997130781,0.1084250999847427,1.0042483999859542,898.3255365999648,902.4156028999714,,,,,,,,,,,,,,,,,,,,,,,,,,,,,16,A,2023-12-11_08h44.26.240,gca_avoidance_task,2022.2.4,143.87143653709293,
positions.xlsx,stimuli.xlsx,stimuli/Social1.png,stimuli/Social2.png,stimuli/Nonsocial1.png,stimuli/Nonsocial2.png,,"(0.7, -0.5)",cs_minus_s,,,,,0,0,0,0,,,,,,,,,0,12,12,7,,,,,,,,,,,,,,,,,,,,,,,,,,,,,,,,,,,,,,,,,,,,,,,,,,,,,,,,,,902.9225471999962,904.3113717999659,902.4156028999714,904.3113717999659,904.3113717999659,904.3113717999659,0.00591910001821816,0.01318180002272129,115,reward,1,[0.6251902000512928],[0.6251941000227816],904.9432929999894,904.9432929999894,0.006883500027470291,0.006883500027470291,0.018310500017832965,0.0529687000089325,0.05992760002845898,0.10170370002742857,0.10853369999676943,1.0043707000440918,908.4362234,912.5680050000083,,,,,,,,,,,,,,,,,,,,,,,,,,,,,16,A,2023-12-11_08h44.26.240,gca_avoidance_task,2022.2.4,143.87143653709293,
positions.xlsx,stimuli.xlsx,stimuli/Social1.png,stimuli/Social2.png,stimuli/Nonsocial1.png,stimuli/Nonsocial2.png,,"(0.7, -0.5)",cs_plus_ns,,,,,0,0,0,0,,,,,,,,,0,13,13,11,,,,,,,,,,,,,,,,,,,,,,,,,,,,,,,,,,,,,,,,,,,,,,,,,,,,,,,,,,913.0748695000075,914.4845571999904,912.5680050000083,914.4845571999904,914.4845571999904,914.4845571999904,0.006487000035122037,0.013045900035649538,115,none,0,,,919.4913029999589,919.4913029999589,0.013833100034389645,0.013833100034389645,0.019840900029521435,0.05447080003796145,0.061454700015019625,0.10308810003334656,0.11005990003468469,1.012800700031221,922.9842282999889,926.9007657999755,,,,,,,,,,,,,,,,,,,,,,,,,,,,,16,A,2023-12-11_08h44.26.240,gca_avoidance_task,2022.2.4,143.87143653709293,
positions.xlsx,stimuli.xlsx,stimuli/Social1.png,stimuli/Social2.png,stimuli/Nonsocial1.png,stimuli/Nonsocial2.png,,"(-0.7, 0.5)",cs_minus_s,,,,,0,0,0,0,,,,,,,,,0,14,14,4,,,,,,,,,,,,,,,,,,,,,,,,,,,,,,,,,,,,,,,,,,,,,,,,,,,,,,,,,,927.4076691999799,929.1576369999675,926.9007657999755,929.1576369999675,929.1576369999675,929.1576369999675,0.0065327000338584185,0.013181700021959841,120,reward,1,[0.5142361000180244],[0.5142398000461981],929.6784450999694,929.6784450999694,0.007236800040118396,0.007236800040118396,0.018486400018446147,0.05310260003898293,0.060041300021111965,0.10169770003994927,0.10864130000118166,1.0044762000325136,933.1713218999794,936.7545740999631,,,,,,,,,,,,,,,,,,,,,,,,,,,,,16,A,2023-12-11_08h44.26.240,gca_avoidance_task,2022.2.4,143.87143653709293,
positions.xlsx,stimuli.xlsx,stimuli/Social1.png,stimuli/Social2.png,stimuli/Nonsocial1.png,stimuli/Nonsocial2.png,,"(-0.7, 0.5)",cs_plus_s,,,,,0,0,0,0,,,,,,,,,0,15,15,0,,,,,,,,,,,,,,,,,,,,,,,,,,,,,,,,,,,,,,,,,,,,,,,,,,,,,,,,,,937.2614306999603,939.0321876999806,936.7545740999631,939.0321876999806,939.0321876999806,939.0321876999806,0.005774100020062178,0.01329440000699833,120,none,0,,,944.0389153999859,944.0389153999859,0.013567399990279227,0.013567399990279227,0.020028900005854666,0.05475130002014339,0.06174690002808347,0.10334769997280091,0.11030739999841899,1.0129995999741368,947.5318865000154,951.9136962000048,,,,,,,,,,,,,,,,,,,,,,,,,,,,,16,A,2023-12-11_08h44.26.240,gca_avoidance_task,2022.2.4,143.87143653709293,
positions.xlsx,stimuli.xlsx,stimuli/Social1.png,stimuli/Social2.png,stimuli/Nonsocial1.png,stimuli/Nonsocial2.png,,"(0.7, 0.5)",cs_minus_ns,,,,,0,0,0,0,,,,,,,,,1,0,16,14,,,,,,,,,,,,,,,,,,,,,,,,,,,,,,,,,,,,,,,,,,,,,,,,,,,,,,,,,,952.4205312000122,954.0524498999584,951.9136962000048,954.0524498999584,954.0524498999584,954.0524498999584,0.007232199946884066,0.013573999982327223,125,reward,1,[0.6536617999663576],[0.6536654999945313],954.712109999964,954.712109999964,0.007472899975255132,0.007472899975255132,0.018338299996685237,0.053082400001585484,0.060069500003010035,0.10165799997048452,0.10861609998391941,1.0044211000204086,958.2050429999945,962.2604759999667,,,,,,,,,,,,,,,,,,,,,,,,,,,,,16,A,2023-12-11_08h44.26.240,gca_avoidance_task,2022.2.4,143.87143653709293,
positions.xlsx,stimuli.xlsx,stimuli/Social1.png,stimuli/Social2.png,stimuli/Nonsocial1.png,stimuli/Nonsocial2.png,,"(0.7, -0.5)",cs_minus_s,,,,,0,0,0,0,,,,,,,,,1,1,17,7,,,,,,,,,,,,,,,,,,,,,,,,,,,,,,,,,,,,,,,,,,,,,,,,,,,,,,,,,,962.7673732999829,964.1075900999713,962.2604759999667,964.1075900999713,964.1075900999713,964.1075900999713,0.006738200027029961,0.013242100016213953,130,reward,1,[0.6252829000004567],[0.6252868000301532],964.739513700013,964.739513700013,0.0069558999966830015,0.0069558999966830015,0.018402500019874424,0.052990399999544024,0.060029299987945706,0.10162289999425411,0.10857809998560697,1.004406200023368,968.2324835999752,971.9961967999698,,,,,,,,,,,,,,,,,,,,,,,,,,,,,16,A,2023-12-11_08h44.26.240,gca_avoidance_task,2022.2.4,143.87143653709293,
positions.xlsx,stimuli.xlsx,stimuli/Social1.png,stimuli/Social2.png,stimuli/Nonsocial1.png,stimuli/Nonsocial2.png,,"(-0.7, 0.5)",cs_plus_s,,,,,0,0,0,0,,,,,,,,,1,2,18,0,,,,,,,,,,,,,,,,,,,,,,,,,,,,,,,,,,,,,,,,,,,,,,,,,,,,,,,,,,972.5030739000067,974.4266041999799,971.9961967999698,974.4266041999799,974.4266041999799,974.4266041999799,0.00638430000981316,0.012980800005607307,130,none,0,,,979.4333715999965,979.4333715999965,0.013172500010114163,0.013172500010114163,0.019774099986534566,0.05441739998059347,0.06139809999149293,0.10307419998571277,0.11002909997478127,1.0127381999627687,982.9262747999746,987.2803251000005,,,,,,,,,,,,,,,,,,,,,,,,,,,,,16,A,2023-12-11_08h44.26.240,gca_avoidance_task,2022.2.4,143.87143653709293,
positions.xlsx,stimuli.xlsx,stimuli/Social1.png,stimuli/Social2.png,stimuli/Nonsocial1.png,stimuli/Nonsocial2.png,,"(0.7, 0.5)",cs_plus_s,,,,,0,0,0,0,,,,,,,,,1,3,19,2,,,,,,,,,,,,,,,,,,,,,,,,,,,,,,,,,,,,,,,,,,,,,,,,,,,,,,,,,,987.7872283000033,989.4398966999725,987.2803251000005,989.4398966999725,989.4398966999725,989.4398966999725,0.0062067999970167875,0.013148600002750754,130,none,0,,,994.4466610999661,994.4466610999661,0.013105500023812056,0.013105500023812056,0.019891100004315376,0.054579999996349216,0.06157840002560988,0.10320920002413914,0.11016149999340996,1.0128804999985732,997.9396396999946,1001.5922480999725,,,,,,,,,,,,,,,,,,,,,,,,,,,,,16,A,2023-12-11_08h44.26.240,gca_avoidance_task,2022.2.4,143.87143653709293,
positions.xlsx,stimuli.xlsx,stimuli/Social1.png,stimuli/Social2.png,stimuli/Nonsocial1.png,stimuli/Nonsocial2.png,,"(-0.7, 0.5)",cs_minus_ns,,,,,0,0,0,0,,,,,,,,,1,4,20,12,,,,,,,,,,,,,,,,,,,,,,,,,,,,,,,,,,,,,,,,,,,,,,,,,,,,,,,,,,1002.0991708000074,1003.7240694999928,1001.5922480999725,1003.7240694999928,1003.7240694999928,1003.7240694999928,0.006605300004594028,0.01330630003940314,135,reward,1,[0.43774630001280457],[0.4377498000394553],1004.1684933999786,1004.1684933999786,0.007089900027494878,0.007089900027494878,0.018516300013288856,0.05319499998586252,0.06014680000953376,0.10180110001238063,0.10876239999197423,1.0045564000029117,1007.6614368999726,1011.3209983999841,,,,,,,,,,,,,,,,,,,,,,,,,,,,,16,A,2023-12-11_08h44.26.240,gca_avoidance_task,2022.2.4,143.87143653709293,
positions.xlsx,stimuli.xlsx,stimuli/Social1.png,stimuli/Social2.png,stimuli/Nonsocial1.png,stimuli/Nonsocial2.png,,"(0.7, -0.5)",cs_plus_ns,,,,,0,0,0,0,,,,,,,,,1,5,21,11,,,,,,,,,,,,,,,,,,,,,,,,,,,,,,,,,,,,,,,,,,,,,,,,,,,,,,,,,,1011.8279606999713,1013.4597993000061,1011.3209983999841,1013.4597993000061,1013.4597993000061,1013.4597993000061,0.006480899988673627,0.013319299963768572,135,none,0,,,1018.4665551999933,1018.4665551999933,0.014101299981120974,0.014101299981120974,0.02013509999960661,0.05480849999003112,0.0617428999976255,0.10336839995579794,0.11035169998649508,1.013024799991399,1021.959487199958,1026.3690399999614,,,,,,,,,,,,,,,,,,,,,,,,,,,,,16,A,2023-12-11_08h44.26.240,gca_avoidance_task,2022.2.4,143.87143653709293,
positions.xlsx,stimuli.xlsx,stimuli/Social1.png,stimuli/Social2.png,stimuli/Nonsocial1.png,stimuli/Nonsocial2.png,,"(-0.7, -0.5)",cs_minus_s,,,,,0,0,0,0,,,,,,,,,1,6,22,5,,,,,,,,,,,,,,,,,,,,,,,,,,,,,,,,,,,,,,,,,,,,,,,,,,,,,,,,,,1026.87593129999,1027.9939583999803,1026.3690399999614,1027.9939583999803,1027.9939583999803,1027.9939583999803,0.006541999988257885,0.013367999985348433,140,reward,1,[0.6252361999941058],[0.6252399999648333],1028.6258606999763,1028.6258606999763,0.007644900004379451,0.007644900004379451,0.018648599972948432,0.05328599998028949,0.06027329998323694,0.10193389997584745,0.10887779999757186,1.004648600006476,1032.1188364999834,1036.3824939999613,,,,,,,,,,,,,,,,,,,,,,,,,,,,,16,A,2023-12-11_08h44.26.240,gca_avoidance_task,2022.2.4,143.87143653709293,
positions.xlsx,stimuli.xlsx,stimuli/Social1.png,stimuli/Social2.png,stimuli/Nonsocial1.png,stimuli/Nonsocial2.png,,"(0.7, -0.5)",cs_minus_ns,,,,,0,0,0,0,,,,,,,,,1,7,23,15,,,,,,,,,,,,,,,,,,,,,,,,,,,,,,,,,,,,,,,,,,,,,,,,,,,,,,,,,,1036.8894298999803,1038.3268767999834,1036.3824939999613,1038.3268767999834,1038.3268767999834,1038.3268767999834,0.00633540004491806,0.013384499994572252,145,reward,1,[0.5002126999897882],[0.5002164000179619],1038.833795499988,1038.833795499988,0.007236800040118396,0.007236800040118396,0.018617100024130195,0.053282000008039176,0.06024660001276061,0.10189240000909194,0.10887490003369749,1.0046708000008948,1042.3267464999808,1046.4098909999593,,,,,,,,,,,,,,,,,,,,,,,,,,,,,16,A,2023-12-11_08h44.26.240,gca_avoidance_task,2022.2.4,143.87143653709293,
positions.xlsx,stimuli.xlsx,stimuli/Social1.png,stimuli/Social2.png,stimuli/Nonsocial1.png,stimuli/Nonsocial2.png,,"(-0.7, -0.5)",cs_plus_s,,,,,0,0,0,0,,,,,,,,,1,8,24,1,,,,,,,,,,,,,,,,,,,,,,,,,,,,,,,,,,,,,,,,,,,,,,,,,,,,,,,,,,1046.916794299963,1048.0209402999608,1046.4098909999593,1048.0209402999608,1048.0209402999608,1048.0209402999608,0.006030499993357807,0.013480100024025887,145,none,0,,,1053.0277170999907,1053.0277170999907,0.014005300006829202,0.014005300006829202,0.020280700002331287,0.05489620001753792,0.06187460001092404,0.10351909999735653,0.11048510001273826,1.013220300024841,1056.5206345999613,1060.6384873999632,,,,,,,,,,,,,,,,,,,,,,,,,,,,,16,A,2023-12-11_08h44.26.240,gca_avoidance_task,2022.2.4,143.87143653709293,
positions.xlsx,stimuli.xlsx,stimuli/Social1.png,stimuli/Social2.png,stimuli/Nonsocial1.png,stimuli/Nonsocial2.png,,"(0.7, -0.5)",cs_plus_s,,,,,0,0,0,0,,,,,,,,,1,9,25,3,,,,,,,,,,,,,,,,,,,,,,,,,,,,,,,,,,,,,,,,,,,,,,,,,,,,,,,,,,1061.1454198000138,1062.6384118999704,1060.6384873999632,1062.6384118999704,1062.6384118999704,1062.6384118999704,0.006043499975930899,0.013206399977207184,145,none,0,,,1067.6451637999853,1067.6451637999853,0.013465299969539046,0.013465299969539046,0.01996589999180287,0.05458120000548661,0.061540699971374124,0.10318549996009097,0.11022299999604002,1.012942600005772,1071.138138499984,1075.540733199974,,,,,,,,,,,,,,,,,,,,,,,,,,,,,16,A,2023-12-11_08h44.26.240,gca_avoidance_task,2022.2.4,143.87143653709293,
positions.xlsx,stimuli.xlsx,stimuli/Social1.png,stimuli/Social2.png,stimuli/Nonsocial1.png,stimuli/Nonsocial2.png,,"(-0.7, 0.5)",cs_minus_s,,,,,0,0,0,0,,,,,,,,,1,10,26,4,,,,,,,,,,,,,,,,,,,,,,,,,,,,,,,,,,,,,,,,,,,,,,,,,,,,,,,,,,1076.0475773999933,1077.1308831999777,1075.540733199974,1077.1308831999777,1077.1308831999777,1077.1308831999777,0.00591449998319149,0.013206699979491532,150,reward,1,[0.7086401999695227],[0.7086439999984577],1077.8461786999833,1077.8461786999833,0.007436699990648776,0.007436699990648776,0.018501799961086363,0.053133999987039715,0.06011259998194873,0.101797399984207,0.10871020000195131,1.0044954000040889,1081.3390854999889,1085.338997200015,,,,,,,,,,,,,,,,,,,,,,,,,,,,,16,A,2023-12-11_08h44.26.240,gca_avoidance_task,2022.2.4,143.87143653709293,
positions.xlsx,stimuli.xlsx,stimuli/Social1.png,stimuli/Social2.png,stimuli/Nonsocial1.png,stimuli/Nonsocial2.png,,"(0.7, 0.5)",cs_plus_ns,,,,,0,0,0,0,,,,,,,,,1,11,27,10,,,,,,,,,,,,,,,,,,,,,,,,,,,,,,,,,,,,,,,,,,,,,,,,,,,,,,,,,,1085.8458106999751,1087.0957695000106,1085.338997200015,1087.0957695000106,1087.0957695000106,1087.0957695000106,0.00645089999306947,0.0135522999917157,150,none,0,,,1092.1025526999729,1092.1025526999729,0.01452419999986887,0.01452419999986887,0.02035750000504777,0.054999400046654046,0.06193720002193004,0.10361240000929683,0.11056360002839938,1.0132898000301793,1095.595475899987,1099.4772315999726,,,,,,,,,,,,,,,,,,,,,,,,,,,,,16,A,2023-12-11_08h44.26.240,gca_avoidance_task,2022.2.4,143.87143653709293,
positions.xlsx,stimuli.xlsx,stimuli/Social1.png,stimuli/Social2.png,stimuli/Nonsocial1.png,stimuli/Nonsocial2.png,,"(0.7, 0.5)",cs_minus_s,,,,,0,0,0,0,,,,,,,,,1,12,28,6,,,,,,,,,,,,,,,,,,,,,,,,,,,,,,,,,,,,,,,,,,,,,,,,,,,,,,,,,,1099.9841409999644,1101.9424167000107,1099.4772315999726,1101.9424167000107,1101.9424167000107,1101.9424167000107,0.0060628000064753,0.013141200004611164,155,reward,1,[0.5695306999841705],[0.5695344000123441],1102.5188119999948,1102.5188119999948,0.007771400036290288,0.007771400036290288,0.018556200026068836,0.053196399996522814,0.06021560000954196,0.10181219998048618,0.10878070001490414,1.0045603000326082,1106.011702799995,1110.268493200012,,,,,,,,,,,,,,,,,,,,,,,,,,,,,16,A,2023-12-11_08h44.26.240,gca_avoidance_task,2022.2.4,143.87143653709293,
positions.xlsx,stimuli.xlsx,stimuli/Social1.png,stimuli/Social2.png,stimuli/Nonsocial1.png,stimuli/Nonsocial2.png,,"(-0.7, 0.5)",cs_plus_ns,,,,,0,0,0,0,,,,,,,,,1,13,29,8,,,,,,,,,,,,,,,,,,,,,,,,,,,,,,,,,,,,,,,,,,,,,,,,,,,,,,,,,,1110.7753917999798,1112.67808350001,1110.268493200012,1112.67808350001,1112.67808350001,1112.67808350001,0.006863200047519058,0.01327070000115782,155,none,0,,,1117.6917928999756,1117.6917928999756,0.014655000006314367,0.014655000006314367,0.027035700040869415,0.05472030001692474,0.06167349999304861,0.1033632000326179,0.11030490003759041,1.0129973000148311,1121.177782499988,1125.594270200003,,,,,,,,,,,,,,,,,,,,,,,,,,,,,16,A,2023-12-11_08h44.26.240,gca_avoidance_task,2022.2.4,143.87143653709293,
positions.xlsx,stimuli.xlsx,stimuli/Social1.png,stimuli/Social2.png,stimuli/Nonsocial1.png,stimuli/Nonsocial2.png,,"(-0.7, -0.5)",cs_plus_ns,,,,,0,0,0,0,,,,,,,,,1,14,30,9,,,,,,,,,,,,,,,,,,,,,,,,,,,,,,,,,,,,,,,,,,,,,,,,,,,,,,,,,,1126.1011485999916,1127.4552795999916,1125.594270200003,1127.4552795999916,1127.4552795999916,1127.4552795999916,0.006806199962738901,0.01339209999423474,155,none,0,,,1132.4620372999925,1132.4620372999925,0.014494700008071959,0.014494700008071959,0.02016879996517673,0.05478780000703409,0.061808799975551665,0.1034745000069961,0.11039340001298115,1.0131660000188276,1135.9549853999633,1140.072851600009,,,,,,,,,,,,,,,,,,,,,,,,,,,,,16,A,2023-12-11_08h44.26.240,gca_avoidance_task,2022.2.4,143.87143653709293,
positions.xlsx,stimuli.xlsx,stimuli/Social1.png,stimuli/Social2.png,stimuli/Nonsocial1.png,stimuli/Nonsocial2.png,,"(-0.7, -0.5)",cs_minus_ns,,,,,0,0,0,0,,,,,,,,,1,15,31,13,,,,,,,,,,,,,,,,,,,,,,,,,,,,,,,,,,,,,,,,,,,,,,,,,,,,,,,,,,1140.5797383000026,1142.3991365999682,1140.072851600009,1142.3991365999682,1142.3991365999682,1142.3991365999682,0.006420200050342828,0.013477500004228204,160,reward,1,[0.43787030002567917],[0.4378740999964066],1142.8435489999829,1142.8435489999829,0.0073643000214360654,0.0073643000214360654,0.0183672999846749,0.053014000004623085,0.05995869997423142,0.10167070000898093,0.10867009998764843,1.0044086999841966,1146.3364819000126,1150.7877363999723,,,,,,,,,,,,,,,,,,,,,,,,,,,,,16,A,2023-12-11_08h44.26.240,gca_avoidance_task,2022.2.4,143.87143653709293,
positions.xlsx,stimuli.xlsx,stimuli/Social1.png,stimuli/Social2.png,stimuli/Nonsocial1.png,stimuli/Nonsocial2.png,,"(-0.7, 0.5)",cs_minus_s,,,,,0,0,0,0,,,,,,,,,2,0,32,4,,,,,,,,,,,,,,,,,,,,,,,,,,,,,,,,,,,,,,,,,,,,,,,,,,,,,,,,,,1151.2946004999685,1153.0098146999953,1150.7877363999723,1153.0098146999953,1153.0098146999953,1153.0098146999953,0.0066642999881878495,0.012731799972243607,165,reward,1,[0.5274776999722235],[0.5274809999973513],1153.5445218000095,1153.5445218000095,0.006878899992443621,0.006878899992443621,0.018833599984645844,0.05352329998277128,0.060445699957199395,0.10209929995471612,0.1090581999742426,1.004892899945844,1157.0374679999659,1160.5512425999623,,,,,,,,,,,,,,,,,,,,,,,,,,,,,16,A,2023-12-11_08h44.26.240,gca_avoidance_task,2022.2.4,143.87143653709293,
positions.xlsx,stimuli.xlsx,stimuli/Social1.png,stimuli/Social2.png,stimuli/Nonsocial1.png,stimuli/Nonsocial2.png,,"(-0.7, 0.5)",cs_plus_ns,,,,,0,0,0,0,,,,,,,,,2,1,33,8,,,,,,,,,,,,,,,,,,,,,,,,,,,,,,,,,,,,,,,,,,,,,,,,,,,,,,,,,,1161.0581021999824,1162.2386564000044,1160.5512425999623,1162.2386564000044,1162.2386564000044,1162.2386564000044,0.006493899971246719,0.012929699965752661,165,none,0,,,1167.2523385999957,1167.2523385999957,0.01490950002335012,0.01490950002335012,0.026648900005966425,0.05437460000393912,0.061319899978116155,0.10295390000101179,0.10988359997281805,1.0126423999899998,1170.7383167999797,1174.661792800005,,,,,,,,,,,,,,,,,,,,,,,,,,,,,16,A,2023-12-11_08h44.26.240,gca_avoidance_task,2022.2.4,143.87143653709293,
positions.xlsx,stimuli.xlsx,stimuli/Social1.png,stimuli/Social2.png,stimuli/Nonsocial1.png,stimuli/Nonsocial2.png,,"(0.7, -0.5)",cs_minus_s,,,,,0,0,0,0,,,,,,,,,2,2,34,7,,,,,,,,,,,,,,,,,,,,,,,,,,,,,,,,,,,,,,,,,,,,,,,,,,,,,,,,,,1175.1686746999621,1176.7102985999663,1174.661792800005,1176.7102985999663,1176.7102985999663,1176.7102985999663,0.006086799956392497,0.013482999987900257,170,reward,1,[0.43782669998472556],[0.43783019995316863],1177.1547056999989,1177.1547056999989,0.007190599979367107,0.007190599979367107,0.018931499973405153,0.05364559998270124,0.06055739999283105,0.10222790000261739,0.10919300001114607,1.0049730999744497,1180.6476392999757,1184.1752774000051,,,,,,,,,,,,,,,,,,,,,,,,,,,,,16,A,2023-12-11_08h44.26.240,gca_avoidance_task,2022.2.4,143.87143653709293,
positions.xlsx,stimuli.xlsx,stimuli/Social1.png,stimuli/Social2.png,stimuli/Nonsocial1.png,stimuli/Nonsocial2.png,,"(0.7, 0.5)",cs_plus_s,,,,,0,0,0,0,,,,,,,,,2,3,35,2,,,,,,,,,,,,,,,,,,,,,,,,,,,,,,,,,,,,,,,,,,,,,,,,,,,,,,,,,,1184.6821907999692,1186.0154500000062,1184.1752774000051,1186.0154500000062,1186.0154500000062,1186.0154500000062,0.006133000017143786,0.013127600017469376,170,none,0,,,1191.0221691000042,1191.0221691000042,0.013958499999716878,0.013958499999716878,0.01985330000752583,0.05459429998882115,0.06153349997475743,0.10317229997599497,0.11011639999924228,1.0128660000045784,1194.5151120999944,1198.4733152000117,,,,,,,,,,,,,,,,,,,,,,,,,,,,,16,A,2023-12-11_08h44.26.240,gca_avoidance_task,2022.2.4,143.87143653709293,
positions.xlsx,stimuli.xlsx,stimuli/Social1.png,stimuli/Social2.png,stimuli/Nonsocial1.png,stimuli/Nonsocial2.png,,"(0.7, -0.5)",cs_plus_ns,,,,,0,0,0,0,,,,,,,,,2,4,36,11,,,,,,,,,,,,,,,,,,,,,,,,,,,,,,,,,,,,,,,,,,,,,,,,,,,,,,,,,,1198.9802009999985,1200.6537216000143,1198.4733152000117,1200.6537216000143,1200.6537216000143,1200.6537216000143,0.006681099999696016,0.013126400008331984,170,none,0,,,1205.6604976999806,1205.6604976999806,0.01409010001225397,0.01409010001225397,0.019880699983332306,0.054559200012590736,0.06157269998220727,0.10323070001322776,0.1101566000143066,1.0129239999805577,1209.1534200999886,1212.8755313999718,,,,,,,,,,,,,,,,,,,,,,,,,,,,,16,A,2023-12-11_08h44.26.240,gca_avoidance_task,2022.2.4,143.87143653709293,
positions.xlsx,stimuli.xlsx,stimuli/Social1.png,stimuli/Social2.png,stimuli/Nonsocial1.png,stimuli/Nonsocial2.png,,"(-0.7, -0.5)",cs_plus_ns,,,,,0,0,0,0,,,,,,,,,2,5,37,9,,,,,,,,,,,,,,,,,,,,,,,,,,,,,,,,,,,,,,,,,,,,,,,,,,,,,,,,,,1213.3823831999907,1214.9795949999825,1212.8755313999718,1214.9795949999825,1214.9795949999825,1214.9795949999825,0.006328799994662404,0.01340539997909218,170,none,0,,,1219.986321799981,1219.986321799981,0.014478600001893938,0.014478600001893938,0.020143100002314895,0.054916599998250604,0.06179449998307973,0.10346439998829737,0.11039960000198334,1.0131198999588378,1223.4793060999946,1227.0555618999642,,,,,,,,,,,,,,,,,,,,,,,,,,,,,16,A,2023-12-11_08h44.26.240,gca_avoidance_task,2022.2.4,143.87143653709293,
positions.xlsx,stimuli.xlsx,stimuli/Social1.png,stimuli/Social2.png,stimuli/Nonsocial1.png,stimuli/Nonsocial2.png,,"(-0.7, -0.5)",cs_minus_s,,,,,0,0,0,0,,,,,,,,,2,6,38,5,,,,,,,,,,,,,,,,,,,,,,,,,,,,,,,,,,,,,,,,,,,,,,,,,,,,,,,,,,1227.5624119999702,1228.8817929999786,1227.0555618999642,1228.8817929999786,1228.8817929999786,1228.8817929999786,0.00612939998973161,0.013182699971366674,175,reward,1,[0.46536059997742996],[0.46536400000331923],1229.3540393000003,1229.3540393000003,0.007217200007289648,0.007217200007289648,0.01878230000147596,0.0534396999864839,0.060409999976400286,0.10207580000860617,0.10902939998777583,1.0047623999998905,1232.8469312000088,1237.013461399998,,,,,,,,,,,,,,,,,,,,,,,,,,,,,16,A,2023-12-11_08h44.26.240,gca_avoidance_task,2022.2.4,143.87143653709293,
positions.xlsx,stimuli.xlsx,stimuli/Social1.png,stimuli/Social2.png,stimuli/Nonsocial1.png,stimuli/Nonsocial2.png,,"(-0.7, 0.5)",cs_minus_ns,,,,,0,0,0,0,,,,,,,,,2,7,39,12,,,,,,,,,,,,,,,,,,,,,,,,,,,,,,,,,,,,,,,,,,,,,,,,,,,,,,,,,,1237.5203763999743,1239.1036128000123,1237.013461399998,1239.1036128000123,1239.1036128000123,1239.1036128000123,0.0067710000439547,0.01328850002028048,180,reward,1,[0.4308158000349067],[0.4308195000048727],1239.5411060999613,1239.5411060999613,0.007570300018414855,0.007570300018414855,0.018449300026986748,0.053094000031705946,0.0600372000481002,0.10169840004527941,0.10868940001819283,1.0044349000090733,1243.034058899968,1246.8603003000026,,,,,,,,,,,,,,,,,,,,,,,,,,,,,16,A,2023-12-11_08h44.26.240,gca_avoidance_task,2022.2.4,143.87143653709293,
positions.xlsx,stimuli.xlsx,stimuli/Social1.png,stimuli/Social2.png,stimuli/Nonsocial1.png,stimuli/Nonsocial2.png,,"(-0.7, 0.5)",cs_plus_s,,,,,0,0,0,0,,,,,,,,,2,8,40,0,,,,,,,,,,,,,,,,,,,,,,,,,,,,,,,,,,,,,,,,,,,,,,,,,,,,,,,,,,1247.3671752999653,1248.5893485000124,1246.8603003000026,1248.5893485000124,1248.5893485000124,1248.5893485000124,0.005975399981252849,0.013295499957166612,180,none,0,,,1253.596145599964,1253.596145599964,0.013623899954836816,0.013623899954836816,0.020083799958229065,0.054794800002127886,0.06168619997333735,0.10339459998067468,0.11030979995848611,1.013028499961365,1257.0890635999967,1260.7277684999863,,,,,,,,,,,,,,,,,,,,,,,,,,,,,16,A,2023-12-11_08h44.26.240,gca_avoidance_task,2022.2.4,143.87143653709293,
positions.xlsx,stimuli.xlsx,stimuli/Social1.png,stimuli/Social2.png,stimuli/Nonsocial1.png,stimuli/Nonsocial2.png,,"(0.7, 0.5)",cs_plus_ns,,,,,0,0,0,0,,,,,,,,,2,9,41,10,,,,,,,,,,,,,,,,,,,,,,,,,,,,,,,,,,,,,,,,,,,,,,,,,,,,,,,,,,1261.2346616999712,1263.102667899977,1260.7277684999863,1263.102667899977,1263.102667899977,1263.102667899977,0.0065453999559395015,0.013378000003285706,180,none,0,,,1268.10940690001,1268.10940690001,0.01415529998484999,0.01415529998484999,0.02009909995831549,0.05481379997218028,0.06176779995439574,0.10340839996933937,0.11039459996391088,1.0130886999540962,1271.6023261999944,1275.234146600007,,,,,,,,,,,,,,,,,,,,,,,,,,,,,16,A,2023-12-11_08h44.26.240,gca_avoidance_task,2022.2.4,143.87143653709293,
positions.xlsx,stimuli.xlsx,stimuli/Social1.png,stimuli/Social2.png,stimuli/Nonsocial1.png,stimuli/Nonsocial2.png,,"(0.7, 0.5)",cs_minus_s,,,,,0,0,0,0,,,,,,,,,2,10,42,6,,,,,,,,,,,,,,,,,,,,,,,,,,,,,,,,,,,,,,,,,,,,,,,,,,,,,,,,,,1275.7410493000061,1277.5673633000115,1275.234146600007,1277.5673633000115,1277.5673633000115,1277.5673633000115,0.006286300020292401,0.013001699990127236,185,reward,1,[0.5071304999873973],[0.5071338000125252],1278.081237300008,1278.081237300008,0.0072110999608412385,0.0072110999608412385,0.018497299985028803,0.05314169998746365,0.06014109996613115,0.10177059995476156,0.10872229997767136,1.0044994999771006,1281.5742443999625,1285.8171017999994,,,,,,,,,,,,,,,,,,,,,,,,,,,,,16,A,2023-12-11_08h44.26.240,gca_avoidance_task,2022.2.4,143.87143653709293,
positions.xlsx,stimuli.xlsx,stimuli/Social1.png,stimuli/Social2.png,stimuli/Nonsocial1.png,stimuli/Nonsocial2.png,,"(-0.7, -0.5)",cs_minus_ns,,,,,0,0,0,0,,,,,,,,,2,11,43,13,,,,,,,,,,,,,,,,,,,,,,,,,,,,,,,,,,,,,,,,,,,,,,,,,,,,,,,,,,1286.3239623999689,1287.4628022999968,1285.8171017999994,1287.4628022999968,1287.4628022999968,1287.4628022999968,0.006320199987385422,0.013267400034237653,190,reward,1,[0.5212392000248656],[0.521242999995593],1287.990563999978,1287.990563999978,0.0076570999808609486,0.0076570999808609486,0.01847549999365583,0.05313359998399392,0.06012089998694137,0.1018183000269346,0.10869429999729618,1.0045221000327729,1291.483527000004,1295.6708687999635,,,,,,,,,,,,,,,,,,,,,,,,,,,,,16,A,2023-12-11_08h44.26.240,gca_avoidance_task,2022.2.4,143.87143653709293,
positions.xlsx,stimuli.xlsx,stimuli/Social1.png,stimuli/Social2.png,stimuli/Nonsocial1.png,stimuli/Nonsocial2.png,,"(0.7, -0.5)",cs_minus_ns,,,,,0,0,0,0,,,,,,,,,2,12,44,15,,,,,,,,,,,,,,,,,,,,,,,,,,,,,,,,,,,,,,,,,,,,,,,,,,,,,,,,,,1296.1777502999757,1297.3304645000026,1295.6708687999635,1297.3304645000026,1297.3304645000026,1297.3304645000026,0.006591799960006028,0.01302909996593371,195,reward,1,[0.4098709999816492],[0.40987470000982285],1297.7471527999733,1297.7471527999733,0.00787620001938194,0.00787620001938194,0.018372900027316064,0.053046700020786375,0.05996350001078099,0.10161090001929551,0.1085488999960944,1.0043791999923997,1301.240078600007,1305.413475600013,,,,,,,,,,,,,,,,,,,,,,,,,,,,,16,A,2023-12-11_08h44.26.240,gca_avoidance_task,2022.2.4,143.87143653709293,
positions.xlsx,stimuli.xlsx,stimuli/Social1.png,stimuli/Social2.png,stimuli/Nonsocial1.png,stimuli/Nonsocial2.png,,"(0.7, -0.5)",cs_plus_s,,,,,0,0,0,0,,,,,,,,,2,13,45,3,,,,,,,,,,,,,,,,,,,,,,,,,,,,,,,,,,,,,,,,,,,,,,,,,,,,,,,,,,1305.9204070999986,1307.2120480000158,1305.413475600013,1307.2120480000158,1307.2120480000158,1307.2120480000158,0.005702599999494851,0.013257200014777482,195,none,0,,,1312.2188052000129,1312.2188052000129,0.013555800018366426,0.013555800018366426,0.019949400040786713,0.054589200008194894,0.06157080002594739,0.1032198999891989,0.11017749999882653,1.0129429000080563,1315.7117573000141,1319.2185971,,,,,,,,,,,,,,,,,,,,,,,,,,,,,16,A,2023-12-11_08h44.26.240,gca_avoidance_task,2022.2.4,143.87143653709293,
positions.xlsx,stimuli.xlsx,stimuli/Social1.png,stimuli/Social2.png,stimuli/Nonsocial1.png,stimuli/Nonsocial2.png,,"(0.7, 0.5)",cs_minus_ns,,,,,0,0,0,0,,,,,,,,,2,14,46,14,,,,,,,,,,,,,,,,,,,,,,,,,,,,,,,,,,,,,,,,,,,,,,,,,,,,,,,,,,1319.7254084000015,1321.2184448000044,1319.2185971,1321.2184448000044,1321.2184448000044,1321.2184448000044,0.00672800000756979,0.013165200012736022,200,reward,1,[0.42384190001757815],[0.42384570004651323],1321.648983299965,1321.648983299965,0.007747599971480668,0.007747599971480668,0.018340100010391325,0.05298919999040663,0.05988539999816567,0.1016061999835074,0.10849050001706928,1.0042978000128642,1325.1419423999614,1328.7737343999906,,,,,,,,,,,,,,,,,,,,,,,,,,,,,16,A,2023-12-11_08h44.26.240,gca_avoidance_task,2022.2.4,143.87143653709293,
positions.xlsx,stimuli.xlsx,stimuli/Social1.png,stimuli/Social2.png,stimuli/Nonsocial1.png,stimuli/Nonsocial2.png,,"(-0.7, -0.5)",cs_plus_s,,,,,0,0,0,0,,,,,,,,,2,15,47,1,,,,,,,,,,,,,,,,,,,,,,,,,,,,,,,,,,,,,,,,,,,,,,,,,,,,,,,,,,1329.2806043999735,1330.898585799965,1328.7737343999906,1330.898585799965,1330.898585799965,1330.898585799965,0.005728999967686832,0.013175099971704185,200,none,0,,,1335.9053030000068,1335.9053030000068,0.01381879998371005,0.01381879998371005,0.01992190000601113,0.05462259997148067,0.06158290000166744,0.1032814999925904,0.11022590001812205,1.0129487999947742,1339.3982557000127,1343.335650599969,,,,,,,,,,,,,,,,,,,,,,,,,,,,,16,A,2023-12-11_08h44.26.240,gca_avoidance_task,2022.2.4,143.87143653709293,
positions.xlsx,stimuli.xlsx,stimuli/Social1.png,stimuli/Social2.png,stimuli/Nonsocial1.png,stimuli/Nonsocial2.png,,"(0.7, -0.5)",cs_plus_ns,,,,,0,0,0,0,,,,,,,,,3,0,48,11,,,,,,,,,,,,,,,,,,,,,,,,,,,,,,,,,,,,,,,,,,,,,,,,,,,,,,,,,,1343.842506099958,1345.078550599981,1343.335650599969,1345.078550599981,1345.078550599981,1345.078550599981,0.006610299984458834,0.0130557999946177,200,none,0,,,1350.0853385999799,1350.0853385999799,0.013846000016201288,0.013846000016201288,0.01980619999812916,0.05449050001334399,0.06145649997051805,0.103132399963215,0.11011499998858199,1.0127996999653988,1353.5782539999927,1357.5572854999918,,,,,,,,,,,,,,,,,,,,,,,,,,,,,16,A,2023-12-11_08h44.26.240,gca_avoidance_task,2022.2.4,143.87143653709293,
positions.xlsx,stimuli.xlsx,stimuli/Social1.png,stimuli/Social2.png,stimuli/Nonsocial1.png,stimuli/Nonsocial2.png,,"(-0.7, -0.5)",cs_plus_ns,,,,,0,0,0,0,,,,,,,,,3,1,49,9,,,,,,,,,,,,,,,,,,,,,,,,,,,,,,,,,,,,,,,,,,,,,,,,,,,,,,,,,,1358.064188199991,1359.5155082999845,1357.5572854999918,1359.5155082999845,1359.5155082999845,1359.5155082999845,0.006430600013118237,0.013413300039246678,200,none,0,,,1364.5222568999743,1364.5222568999743,0.014398000028450042,0.014398000028450042,0.020169500028714538,0.054869200044777244,0.06184380000922829,0.10347160004312173,0.11045580002246425,1.0131957000121474,1368.015181900002,1371.633124199987,,,,,,,,,,,,,,,,,,,,,,,,,,,,,16,A,2023-12-11_08h44.26.240,gca_avoidance_task,2022.2.4,143.87143653709293,
positions.xlsx,stimuli.xlsx,stimuli/Social1.png,stimuli/Social2.png,stimuli/Nonsocial1.png,stimuli/Nonsocial2.png,,"(-0.7, -0.5)",cs_plus_s,,,,,0,0,0,0,,,,,,,,,3,2,50,1,,,,,,,,,,,,,,,,,,,,,,,,,,,,,,,,,,,,,,,,,,,,,,,,,,,,,,,,,,1372.1400075000129,1373.348273999989,1371.633124199987,1373.348273999989,1373.348273999989,1373.348273999989,0.005722299974877387,0.013346499996259809,200,none,0,,,1378.3550793000031,1378.3550793000031,0.014084899972658604,0.014084899972658604,0.020184299966786057,0.054850999964401126,0.06180209998274222,0.10345569998025894,0.11039509996771812,1.0131335000041872,1381.8480412999634,1386.1464560999884,,,,,,,,,,,,,,,,,,,,,,,,,,,,,16,A,2023-12-11_08h44.26.240,gca_avoidance_task,2022.2.4,143.87143653709293,
positions.xlsx,stimuli.xlsx,stimuli/Social1.png,stimuli/Social2.png,stimuli/Nonsocial1.png,stimuli/Nonsocial2.png,,"(0.7, 0.5)",cs_plus_ns,,,,,0,0,0,0,,,,,,,,,3,3,51,10,,,,,,,,,,,,,,,,,,,,,,,,,,,,,,,,,,,,,,,,,,,,,,,,,,,,,,,,,,1386.653344499995,1387.7782965999795,1386.1464560999884,1387.7782965999795,1387.7782965999795,1387.7782965999795,0.006760900025255978,0.013468799996189773,200,none,0,,,1392.7850310999784,1392.7850310999784,0.014293700049165636,0.014293700049165636,0.020169900031760335,0.054863099998328835,0.061863600043579936,0.10358260001521558,0.11046510003507137,1.0131120000150986,1396.2779856999987,1400.736167199968,,,,,,,,,,,,,,,,,,,,,,,,,,,,,16,A,2023-12-11_08h44.26.240,gca_avoidance_task,2022.2.4,143.87143653709293,
positions.xlsx,stimuli.xlsx,stimuli/Social1.png,stimuli/Social2.png,stimuli/Nonsocial1.png,stimuli/Nonsocial2.png,,"(0.7, 0.5)",cs_minus_ns,,,,,0,0,0,0,,,,,,,,,3,4,52,14,,,,,,,,,,,,,,,,,,,,,,,,,,,,,,,,,,,,,,,,,,,,,,,,,,,,,,,,,,1401.2430335999816,1402.826307899959,1400.736167199968,1402.826307899959,1402.826307899959,1402.826307899959,0.00655170000391081,0.012933299993164837,205,reward,1,[0.506980600010138],[0.5069843000383116],1403.3402040000074,1403.3402040000074,0.007403899973724037,0.007403899973724037,0.01846529997419566,0.05312989995582029,0.06007409997982904,0.10177239996846765,0.10872540000127628,1.004492299980484,1406.8331360999728,1410.6455092999968,,,,,,,,,,,,,,,,,,,,,,,,,,,,,16,A,2023-12-11_08h44.26.240,gca_avoidance_task,2022.2.4,143.87143653709293,
positions.xlsx,stimuli.xlsx,stimuli/Social1.png,stimuli/Social2.png,stimuli/Nonsocial1.png,stimuli/Nonsocial2.png,,"(-0.7, -0.5)",cs_minus_s,,,,,0,0,0,0,,,,,,,,,3,5,53,5,,,,,,,,,,,,,,,,,,,,,,,,,,,,,,,,,,,,,,,,,,,,,,,,,,,,,,,,,,1411.1523663999978,1413.0620092999889,1410.6455092999968,1413.0620092999889,1413.0620092999889,1413.0620092999889,0.005563299986533821,0.013044399966020137,210,reward,1,[0.45824979996541515],[0.4582536999951117],1413.5272815999924,1413.5272815999924,0.006907799979671836,0.006907799979671836,0.018575499998405576,0.05323809996480122,0.06017489999067038,0.1018031999701634,0.10877789999358356,1.0045846999855712,1417.0201939999824,1421.422810799966,,,,,,,,,,,,,,,,,,,,,,,,,,,,,16,A,2023-12-11_08h44.26.240,gca_avoidance_task,2022.2.4,143.87143653709293,
positions.xlsx,stimuli.xlsx,stimuli/Social1.png,stimuli/Social2.png,stimuli/Nonsocial1.png,stimuli/Nonsocial2.png,,"(-0.7, -0.5)",cs_minus_ns,,,,,0,0,0,0,,,,,,,,,3,6,54,13,,,,,,,,,,,,,,,,,,,,,,,,,,,,,,,,,,,,,,,,,,,,,,,,,,,,,,,,,,1421.929762499989,1423.5268935000058,1421.422810799966,1423.5268935000058,1423.5268935000058,1423.5268935000058,0.006321099994238466,0.01303670002380386,215,reward,1,[0.451722499972675],[0.4517264000023715],1423.9851913999883,1423.9851913999883,0.008611800032667816,0.008611800032667816,0.017823200032580644,0.05252780002774671,0.059485499979928136,0.10116180003387854,0.10810240003047511,1.0039071000064723,1427.4781360999914,1431.4640927999862,,,,,,,,,,,,,,,,,,,,,,,,,,,,,16,A,2023-12-11_08h44.26.240,gca_avoidance_task,2022.2.4,143.87143653709293,
positions.xlsx,stimuli.xlsx,stimuli/Social1.png,stimuli/Social2.png,stimuli/Nonsocial1.png,stimuli/Nonsocial2.png,,"(0.7, 0.5)",cs_minus_s,,,,,0,0,0,0,,,,,,,,,3,7,55,6,,,,,,,,,,,,,,,,,,,,,,,,,,,,,,,,,,,,,,,,,,,,,,,,,,,,,,,,,,1431.9709976000013,1433.92229279998,1431.4640927999862,1433.92229279998,1433.92229279998,1433.92229279998,0.005565600004047155,0.01344420004170388,220,reward,1,[0.39633930003037676],[0.3963430000003427],1434.3250702999649,1434.3250702999649,0.006957200006581843,0.006957200006581843,0.018285400001332164,0.05302920000394806,0.059947900008410215,0.1015622999984771,0.10857559996657073,1.0043205000110902,1437.8180512000108,1441.4845276999986,,,,,,,,,,,,,,,,,,,,,,,,,,,,,16,A,2023-12-11_08h44.26.240,gca_avoidance_task,2022.2.4,143.87143653709293,
positions.xlsx,stimuli.xlsx,stimuli/Social1.png,stimuli/Social2.png,stimuli/Nonsocial1.png,stimuli/Nonsocial2.png,,"(0.7, -0.5)",cs_minus_s,,,,,0,0,0,0,,,,,,,,,3,8,56,7,,,,,,,,,,,,,,,,,,,,,,,,,,,,,,,,,,,,,,,,,,,,,,,,,,,,,,,,,,1441.99141279998,1443.8038736999733,1441.4845276999986,1443.8038736999733,1443.8038736999733,1443.8038736999733,0.0064625999657437205,0.013065099949017167,225,reward,1,[0.3890341999940574],[0.3890382999670692],1444.1997039999696,1444.1997039999696,0.007152099977247417,0.007152099977247417,0.018274399975780398,0.05293419997906312,0.059908099996391684,0.10151700000278652,0.10847460001241416,1.0043175999890082,1447.692615900014,1451.2758275999804,,,,,,,,,,,,,,,,,,,,,,,,,,,,,16,A,2023-12-11_08h44.26.240,gca_avoidance_task,2022.2.4,143.87143653709293,
positions.xlsx,stimuli.xlsx,stimuli/Social1.png,stimuli/Social2.png,stimuli/Nonsocial1.png,stimuli/Nonsocial2.png,,"(-0.7, 0.5)",cs_minus_s,,,,,0,0,0,0,,,,,,,,,3,9,57,4,,,,,,,,,,,,,,,,,,,,,,,,,,,,,,,,,,,,,,,,,,,,,,,,,,,,,,,,,,1451.7826899999636,1453.0048623000039,1451.2758275999804,1453.0048623000039,1453.0048623000039,1453.0048623000039,0.006064900022465736,0.013245000038295984,230,reward,1,[0.40332570002647117],[0.40986010001506656],1453.421537199989,1453.421537199989,0.007067000027745962,0.007067000027745962,0.018315100052859634,0.05305470002349466,0.05994090001331642,0.1015880000195466,0.10856640001293272,1.0043452000245452,1456.9145103999763,1461.330980699975,,,,,,,,,,,,,,,,,,,,,,,,,,,,,16,A,2023-12-11_08h44.26.240,gca_avoidance_task,2022.2.4,143.87143653709293,
positions.xlsx,stimuli.xlsx,stimuli/Social1.png,stimuli/Social2.png,stimuli/Nonsocial1.png,stimuli/Nonsocial2.png,,"(-0.7, 0.5)",cs_minus_ns,,,,,0,0,0,0,,,,,,,,,3,10,58,12,,,,,,,,,,,,,,,,,,,,,,,,,,,,,,,,,,,,,,,,,,,,,,,,,,,,,,,,,,1461.837864400004,1463.7822302000131,1461.330980699975,1463.7822302000131,1463.7822302000131,1463.7822302000131,0.006132300011813641,0.013091999979224056,235,reward,1,[0.40292040002532303],[0.4102893000235781],1464.198870299966,1464.198870299966,0.007629700005054474,0.007629700005054474,0.017737299960572273,0.05247489997418597,0.059362499974668026,0.1010359000065364,0.10797660000389442,1.0037536000018008,1467.6918304999708,1471.6985914999968,,,,,,,,,,,,,,,,,,,,,,,,,,,,,16,A,2023-12-11_08h44.26.240,gca_avoidance_task,2022.2.4,143.87143653709293,
positions.xlsx,stimuli.xlsx,stimuli/Social1.png,stimuli/Social2.png,stimuli/Nonsocial1.png,stimuli/Nonsocial2.png,,"(-0.7, 0.5)",cs_plus_s,,,,,0,0,0,0,,,,,,,,,3,11,59,0,,,,,,,,,,,,,,,,,,,,,,,,,,,,,,,,,,,,,,,,,,,,,,,,,,,,,,,,,,1472.2054938999936,1473.6984983999864,1471.6985914999968,1473.6984983999864,1473.6984983999864,1473.6984983999864,0.00597830000333488,0.013357500021811575,235,none,0,,,1478.7052386999712,1478.7052386999712,0.013527800037991256,0.013527800037991256,0.020147700037341565,0.05481639999197796,0.06175749999238178,0.10340910003287718,0.11037270002998412,1.0131498000118881,1482.198183599976,1486.2188770999783,,,,,,,,,,,,,,,,,,,,,,,,,,,,,16,A,2023-12-11_08h44.26.240,gca_avoidance_task,2022.2.4,143.87143653709293,
positions.xlsx,stimuli.xlsx,stimuli/Social1.png,stimuli/Social2.png,stimuli/Nonsocial1.png,stimuli/Nonsocial2.png,,"(-0.7, 0.5)",cs_plus_ns,,,,,0,0,0,0,,,,,,,,,3,12,60,8,,,,,,,,,,,,,,,,,,,,,,,,,,,,,,,,,,,,,,,,,,,,,,,,,,,,,,,,,,1486.7257604000042,1488.2256975999917,1486.2188770999783,1488.2256975999917,1488.2256975999917,1488.2256975999917,0.0067347000003792346,0.013163600000552833,235,none,0,,,1493.232453399978,1493.232453399978,0.01510779996169731,0.01510779996169731,0.020024799974635243,0.054636399960145354,0.06158859998686239,0.1032561999745667,0.1102062999852933,1.0129361999570392,1496.7254328000126,1500.6002657999634,,,,,,,,,,,,,,,,,,,,,,,,,,,,,16,A,2023-12-11_08h44.26.240,gca_avoidance_task,2022.2.4,143.87143653709293,
positions.xlsx,stimuli.xlsx,stimuli/Social1.png,stimuli/Social2.png,stimuli/Nonsocial1.png,stimuli/Nonsocial2.png,,"(0.7, 0.5)",cs_plus_s,,,,,0,0,0,0,,,,,,,,,3,13,61,2,,,,,,,,,,,,,,,,,,,,,,,,,,,,,,,,,,,,,,,,,,,,,,,,,,,,,,,,,,1501.107136000006,1502.4612505999976,1500.6002657999634,1502.4612505999976,1502.4612505999976,1502.4612505999976,0.006029299984220415,0.013167099968995899,235,shock,1,[0.2501258999691345],[0.2501295999973081],1502.7181917999987,1502.7181917999987,0.007411600032355636,0.007411600032355636,0.01843260001624003,0.053040600032545626,0.0601176000200212,0.10172089998377487,0.10870350000914186,1.0044446000247262,1506.2111832000082,1510.5651352999848,,,,,,,,,,,,,,,,,,,,,,,,,,,,,16,A,2023-12-11_08h44.26.240,gca_avoidance_task,2022.2.4,143.87143653709293,
positions.xlsx,stimuli.xlsx,stimuli/Social1.png,stimuli/Social2.png,stimuli/Nonsocial1.png,stimuli/Nonsocial2.png,,"(0.7, -0.5)",cs_plus_s,,,,,0,0,0,0,,,,,,,,,3,14,62,3,,,,,,,,,,,,,,,,,,,,,,,,,,,,,,,,,,,,,,,,,,,,,,,,,,,,,,,,,,1511.072038399987,1513.0580775999697,1510.5651352999848,1513.0580775999697,1513.0580775999697,1513.0580775999697,0.006013200036250055,0.012856300047133118,235,none,0,,,1518.0648270999664,1518.0648270999664,0.012836900015827268,0.012836900015827268,0.01959880004869774,0.05420460004825145,0.06117070000618696,0.1027983000385575,0.10978390002856031,1.0125567000359297,1521.5577275999822,1525.0646074999822,,,,,,,,,,,,,,,,,,,,,,,,,,,,,16,A,2023-12-11_08h44.26.240,gca_avoidance_task,2022.2.4,143.87143653709293,
positions.xlsx,stimuli.xlsx,stimuli/Social1.png,stimuli/Social2.png,stimuli/Nonsocial1.png,stimuli/Nonsocial2.png,,"(0.7, -0.5)",cs_minus_ns,,,,,0,0,0,0,,,,,,,,,3,15,63,15,,,,,,,,,,,,,,,,,,,,,,,,,,,,,,,,,,,,,,,,,,,,,,,,,,,,,,,,,,1525.571445300011,1526.5922449000063,1525.0646074999822,1526.5922449000063,1526.5922449000063,1526.5922449000063,0.006495700043160468,0.013109799998346716,240,reward,1,[0.4932089000358246],[0.49321270000655204],1527.0922143000062,1527.0922143000062,0.007764399982988834,0.007764399982988834,0.01849039999069646,0.05319100001361221,0.060183299996424466,0.10180559998843819,0.10879959998419508,1.004536000022199,1530.5851777999778,1534.328095200006,,,,,,,,,,,,,,,,,,,,,,,,,,,,,16,A,2023-12-11_08h44.26.240,gca_avoidance_task,2022.2.4,143.87143653709293,
positions.xlsx,stimuli.xlsx,stimuli/Social1.png,stimuli/Social2.png,stimuli/Nonsocial1.png,stimuli/Nonsocial2.png,,"(0.7, 0.5)",cs_plus_ns,,,,,0,0,0,0,,,,,,,,,4,0,64,10,,,,,,,,,,,,,,,,,,,,,,,,,,,,,,,,,,,,,,,,,,,,,,,,,,,,,,,,,,1534.8349927999661,1535.994646199979,1534.328095200006,1535.994646199979,1535.994646199979,1535.994646199979,0.007159500033594668,0.013060900033451617,240,none,0,,,1541.0083321999991,1541.0083321999991,0.014412500022444874,0.014412500022444874,0.026782700035255402,0.05451820004964247,0.06145580002339557,0.10313730000052601,0.11007360002258793,1.0127794000436552,1544.4943053000025,1548.5219855000032,,,,,,,,,,,,,,,,,,,,,,,,,,,,,16,A,2023-12-11_08h44.26.240,gca_avoidance_task,2022.2.4,143.87143653709293,
positions.xlsx,stimuli.xlsx,stimuli/Social1.png,stimuli/Social2.png,stimuli/Nonsocial1.png,stimuli/Nonsocial2.png,,"(0.7, 0.5)",cs_plus_s,,,,,0,0,0,0,,,,,,,,,4,1,65,2,,,,,,,,,,,,,,,,,,,,,,,,,,,,,,,,,,,,,,,,,,,,,,,,,,,,,,,,,,1549.0288758999668,1550.2579719999922,1548.5219855000032,1550.2579719999922,1550.2579719999922,1550.2579719999922,0.007242700026836246,0.012790900014806539,240,none,0,,,1555.264719299972,1555.264719299972,0.01348700001835823,0.01348700001835823,0.019564300018828362,0.054298700008075684,0.06118770001921803,0.102828299975954,0.10977809998439625,1.0125383000122383,1558.7576694999589,1562.7783182999701,,,,,,,,,,,,,,,,,,,,,,,,,,,,,16,A,2023-12-11_08h44.26.240,gca_avoidance_task,2022.2.4,143.87143653709293,
positions.xlsx,stimuli.xlsx,stimuli/Social1.png,stimuli/Social2.png,stimuli/Nonsocial1.png,stimuli/Nonsocial2.png,,"(-0.7, -0.5)",cs_plus_ns,,,,,0,0,0,0,,,,,,,,,4,2,66,9,,,,,,,,,,,,,,,,,,,,,,,,,,,,,,,,,,,,,,,,,,,,,,,,,,,,,,,,,,1563.2852343000122,1565.0073891999782,1562.7783182999701,1565.0073891999782,1565.0073891999782,1565.0073891999782,0.006803399999625981,0.013221499975770712,240,none,0,,,1570.014130799973,1570.014130799973,0.014253199973609298,0.014253199973609298,0.019956099975388497,0.05466630001319572,0.061629700008779764,0.1033132000011392,0.11026709998259321,1.0129642999963835,1573.507099599985,1577.951342699991,,,,,,,,,,,,,,,,,,,,,,,,,,,,,16,A,2023-12-11_08h44.26.240,gca_avoidance_task,2022.2.4,143.87143653709293,
positions.xlsx,stimuli.xlsx,stimuli/Social1.png,stimuli/Social2.png,stimuli/Nonsocial1.png,stimuli/Nonsocial2.png,,"(-0.7, -0.5)",cs_minus_s,,,,,0,0,0,0,,,,,,,,,4,3,67,5,,,,,,,,,,,,,,,,,,,,,,,,,,,,,,,,,,,,,,,,,,,,,,,,,,,,,,,,,,1578.4582549000042,1579.5970946999732,1577.951342699991,1579.5970946999732,1579.5970946999732,1579.5970946999732,0.006565299991052598,0.013017099990975112,245,reward,1,[0.5762659999891184],[0.5762697999598458],1580.1804152000113,1580.1804152000113,0.006745900027453899,0.006745900027453899,0.018856800044886768,0.05352020001737401,0.06046130001777783,0.102139700029511,0.10906990000512451,1.004822100047022,1583.6733303999645,1587.8467553000082,,,,,,,,,,,,,,,,,,,,,,,,,,,,,16,A,2023-12-11_08h44.26.240,gca_avoidance_task,2022.2.4,143.87143653709293,
positions.xlsx,stimuli.xlsx,stimuli/Social1.png,stimuli/Social2.png,stimuli/Nonsocial1.png,stimuli/Nonsocial2.png,,"(0.7, 0.5)",cs_minus_ns,,,,,0,0,0,0,,,,,,,,,4,4,68,14,,,,,,,,,,,,,,,,,,,,,,,,,,,,,,,,,,,,,,,,,,,,,,,,,,,,,,,,,,1588.3536985999672,1589.756425199972,1587.8467553000082,1589.756425199972,1589.756425199972,1589.756425199972,0.006680199992842972,0.013249000010546297,250,reward,1,[0.4795219000079669],[0.4795256999786943],1590.2425221999874,1590.2425221999874,0.007676700013689697,0.007676700013689697,0.01866360002895817,0.05333670001709834,0.060287200030870736,0.1019409000291489,0.10888050001813099,1.0046449999790639,1593.7354718999704,1597.9366503999918,,,,,,,,,,,,,,,,,,,,,,,,,,,,,16,A,2023-12-11_08h44.26.240,gca_avoidance_task,2022.2.4,143.87143653709293,
positions.xlsx,stimuli.xlsx,stimuli/Social1.png,stimuli/Social2.png,stimuli/Nonsocial1.png,stimuli/Nonsocial2.png,,"(-0.7, 0.5)",cs_plus_s,,,,,0,0,0,0,,,,,,,,,4,5,69,0,,,,,,,,,,,,,,,,,,,,,,,,,,,,,,,,,,,,,,,,,,,,,,,,,,,,,,,,,,1598.4435835999902,1600.103279199975,1597.9366503999918,1600.103279199975,1600.103279199975,1600.103279199975,0.006363900029100478,0.013027000008150935,250,none,0,,,1605.1099902999704,1605.1099902999704,0.013383699988480657,0.013383699988480657,0.01975989999482408,0.05443590000504628,0.06141279998701066,0.10302099998807535,0.10998080001445487,1.0127276999992318,1608.6029511999805,1612.783328199992,,,,,,,,,,,,,,,,,,,,,,,,,,,,,16,A,2023-12-11_08h44.26.240,gca_avoidance_task,2022.2.4,143.87143653709293,
positions.xlsx,stimuli.xlsx,stimuli/Social1.png,stimuli/Social2.png,stimuli/Nonsocial1.png,stimuli/Nonsocial2.png,,"(-0.7, -0.5)",cs_minus_ns,,,,,0,0,0,0,,,,,,,,,4,6,70,13,,,,,,,,,,,,,,,,,,,,,,,,,,,,,,,,,,,,,,,,,,,,,,,,,,,,,,,,,,1613.2902220999822,1614.3665792999673,1612.783328199992,1614.3665792999673,1614.3665792999673,1614.3665792999673,0.007464600028470159,0.013147499994374812,255,reward,1,[0.4382477999897674],[0.4382519000209868],1614.810959299968,1614.810959299968,0.007937400019727647,0.007937400019727647,0.01798250002320856,0.05272919998969883,0.05970390001311898,0.10133400000631809,0.10823000001255423,1.0040519000031054,1618.3039598999894,1622.7829163999995,,,,,,,,,,,,,,,,,,,,,,,,,,,,,16,A,2023-12-11_08h44.26.240,gca_avoidance_task,2022.2.4,143.87143653709293,
positions.xlsx,stimuli.xlsx,stimuli/Social1.png,stimuli/Social2.png,stimuli/Nonsocial1.png,stimuli/Nonsocial2.png,,"(0.7, -0.5)",cs_plus_s,,,,,0,0,0,0,,,,,,,,,4,7,71,3,,,,,,,,,,,,,,,,,,,,,,,,,,,,,,,,,,,,,,,,,,,,,,,,,,,,,,,,,,1623.28985619999,1624.9009092999622,1622.7829163999995,1624.9009092999622,1624.9009092999622,1624.9009092999622,0.006051999982446432,0.013197099964600056,255,none,0,,,1629.9076115000062,1629.9076115000062,0.013425099954474717,0.013425099954474717,0.019904399989172816,0.05462539999280125,0.06154269998660311,0.10319769999478012,0.11016069998731837,1.0129334999946877,1633.4006123999716,1637.8795272000134,,,,,,,,,,,,,,,,,,,,,,,,,,,,,16,A,2023-12-11_08h44.26.240,gca_avoidance_task,2022.2.4,143.87143653709293,
positions.xlsx,stimuli.xlsx,stimuli/Social1.png,stimuli/Social2.png,stimuli/Nonsocial1.png,stimuli/Nonsocial2.png,,"(0.7, 0.5)",cs_minus_s,,,,,0,0,0,0,,,,,,,,,4,8,72,6,,,,,,,,,,,,,,,,,,,,,,,,,,,,,,,,,,,,,,,,,,,,,,,,,,,,,,,,,,1638.386468200013,1640.3516488999594,1637.8795272000134,1640.3516488999594,1640.3516488999594,1640.3516488999594,0.005784999986644834,0.013300899998284876,260,reward,1,[0.4171246000332758],[0.41712830000324175],1640.7752608999726,1640.7752608999726,0.00698419997934252,0.00698419997934252,0.018307899998035282,0.052972699981182814,0.05990579997887835,0.10158209997462109,0.10853460000362247,1.0043780999840237,1644.2682032999583,1648.0110957999714,,,,,,,,,,,,,,,,,,,,,,,,,,,,,16,A,2023-12-11_08h44.26.240,gca_avoidance_task,2022.2.4,143.87143653709293,
positions.xlsx,stimuli.xlsx,stimuli/Social1.png,stimuli/Social2.png,stimuli/Nonsocial1.png,stimuli/Nonsocial2.png,,"(-0.7, -0.5)",cs_plus_s,,,,,0,0,0,0,,,,,,,,,4,9,73,1,,,,,,,,,,,,,,,,,,,,,,,,,,,,,,,,,,,,,,,,,,,,,,,,,,,,,,,,,,1648.5179594999645,1650.1985027999617,1648.0110957999714,1650.1985027999617,1650.1985027999617,1650.1985027999617,0.005711000005248934,0.013240000000223517,260,none,0,,,1655.2052201000042,1655.2052201000042,0.01345729996683076,0.01345729996683076,0.019937300006859004,0.05461190000642091,0.06161699997028336,0.10327479999978095,0.1102182999602519,1.0129135999595746,1658.6981879000086,1662.3785862000077,,,,,,,,,,,,,,,,,,,,,,,,,,,,,16,A,2023-12-11_08h44.26.240,gca_avoidance_task,2022.2.4,143.87143653709293,
positions.xlsx,stimuli.xlsx,stimuli/Social1.png,stimuli/Social2.png,stimuli/Nonsocial1.png,stimuli/Nonsocial2.png,,"(-0.7, 0.5)",cs_minus_ns,,,,,0,0,0,0,,,,,,,,,4,10,74,12,,,,,,,,,,,,,,,,,,,,,,,,,,,,,,,,,,,,,,,,,,,,,,,,,,,,,,,,,,1662.885497500014,1664.5381954999757,1662.3785862000077,1664.5381954999757,1664.5381954999757,1664.5381954999757,0.006268500001169741,0.013295500015374273,265,reward,1,[0.5003600000054576],[0.5077631000312977],1665.0520644999924,1665.0520644999924,0.007787399983499199,0.007787399983499199,0.018212800030596554,0.05296110000927001,0.05990240001119673,0.10152780002681538,0.10852350003551692,1.0042759000207298,1668.5449945,1672.53789159999,,,,,,,,,,,,,,,,,,,,,,,,,,,,,16,A,2023-12-11_08h44.26.240,gca_avoidance_task,2022.2.4,143.87143653709293,
positions.xlsx,stimuli.xlsx,stimuli/Social1.png,stimuli/Social2.png,stimuli/Nonsocial1.png,stimuli/Nonsocial2.png,,"(-0.7, 0.5)",cs_plus_ns,,,,,0,0,0,0,,,,,,,,,4,11,75,8,,,,,,,,,,,,,,,,,,,,,,,,,,,,,,,,,,,,,,,,,,,,,,,,,,,,,,,,,,1673.0448040000047,1675.0100270999828,1672.53789159999,1675.0100270999828,1675.0100270999828,1675.0100270999828,0.006515800021588802,0.013135400018654764,265,none,0,,,1680.0237134000054,1680.0237134000054,0.015357600001152605,0.015357600001152605,0.026885700004640967,0.054556199989747256,0.06152500002644956,0.10319039999740198,0.1101751999813132,1.0128587000072002,1683.5096950000152,1687.669235199981,,,,,,,,,,,,,,,,,,,,,,,,,,,,,16,A,2023-12-11_08h44.26.240,gca_avoidance_task,2022.2.4,143.87143653709293,
positions.xlsx,stimuli.xlsx,stimuli/Social1.png,stimuli/Social2.png,stimuli/Nonsocial1.png,stimuli/Nonsocial2.png,,"(0.7, -0.5)",cs_minus_s,,,,,0,0,0,0,,,,,,,,,4,12,76,7,,,,,,,,,,,,,,,,,,,,,,,,,,,,,,,,,,,,,,,,,,,,,,,,,,,,,,,,,,1688.1761944000027,1689.4677662999602,1687.669235199981,1689.4677662999602,1689.4677662999602,1689.4677662999602,0.005990399979054928,0.013452599989250302,270,reward,1,[0.3893590000225231],[0.3893623999902047],1689.8636091999942,1689.8636091999942,0.007210400013718754,0.007210400013718754,0.018094500002916902,0.052750300033949316,0.05969830002868548,0.10141150001436472,0.10835720004979521,1.00415430002613,1693.3565178000135,1697.6758504000027,,,,,,,,,,,,,,,,,,,,,,,,,,,,,16,A,2023-12-11_08h44.26.240,gca_avoidance_task,2022.2.4,143.87143653709293,
positions.xlsx,stimuli.xlsx,stimuli/Social1.png,stimuli/Social2.png,stimuli/Nonsocial1.png,stimuli/Nonsocial2.png,,"(0.7, -0.5)",cs_minus_ns,,,,,0,0,0,0,,,,,,,,,4,13,77,15,,,,,,,,,,,,,,,,,,,,,,,,,,,,,,,,,,,,,,,,,,,,,,,,,,,,,,,,,,1698.1827032999718,1699.2034627000103,1697.6758504000027,1699.2034627000103,1699.2034627000103,1699.2034627000103,0.006944500026293099,0.013252800039481372,275,reward,1,[0.4934425000101328],[0.4934462000383064],1699.7035075000022,1699.7035075000022,0.007842699997127056,0.007842699997127056,0.018342599971219897,0.05299799999920651,0.05997810000553727,0.10160609998274595,0.10856339999008924,1.004350400005933,1703.1964279999956,1707.640710000007,,,,,,,,,,,,,,,,,,,,,,,,,,,,,16,A,2023-12-11_08h44.26.240,gca_avoidance_task,2022.2.4,143.87143653709293,
positions.xlsx,stimuli.xlsx,stimuli/Social1.png,stimuli/Social2.png,stimuli/Nonsocial1.png,stimuli/Nonsocial2.png,,"(-0.7, 0.5)",cs_minus_s,,,,,0,0,0,0,,,,,,,,,4,14,78,4,,,,,,,,,,,,,,,,,,,,,,,,,,,,,,,,,,,,,,,,,,,,,,,,,,,,,,,,,,1708.1475825000089,1709.2794906999916,1707.640710000007,1709.2794906999916,1709.2794906999916,1709.2794906999916,0.006515600020065904,0.013328200031537563,280,reward,1,[0.5907745000440627],[0.5907783000147901],1709.876662399969,1709.876662399969,0.007304099970497191,0.007304099970497191,0.01855379994958639,0.053200799971818924,0.06017219997011125,0.10180209996178746,0.1087662999634631,1.0045232999837026,1713.3696085999836,1717.2375637000077,,,,,,,,,,,,,,,,,,,,,,,,,,,,,16,A,2023-12-11_08h44.26.240,gca_avoidance_task,2022.2.4,143.87143653709293,
positions.xlsx,stimuli.xlsx,stimuli/Social1.png,stimuli/Social2.png,stimuli/Nonsocial1.png,stimuli/Nonsocial2.png,,"(0.7, -0.5)",cs_plus_ns,,,,,0,0,0,0,,,,,,,,,4,15,79,11,,,,,,,,,,,,,,,,,,,,,,,,,,,,,,,,,,,,,,,,,,,,,,,,,,,,,,,,,,1717.7444453999633,1718.7582999999868,1717.2375637000077,1718.7582999999868,1718.7582999999868,1718.7582999999868,0.006584200018551201,0.013012500014156103,280,none,0,,,1723.7650672000018,1723.7650672000018,0.013773199985735118,0.013773199985735118,0.019741500029340386,0.05437959998380393,0.06135460000950843,0.10302199999568984,0.10999470000388101,1.0126931000268087,1727.2580058999592,1730.4106075000018,,,,,,,,,,,,,,,,,,,,,,,,,,,,,16,A,2023-12-11_08h44.26.240,gca_avoidance_task,2022.2.4,143.87143653709293,
positions.xlsx,stimuli.xlsx,stimuli/Social1.png,stimuli/Social2.png,stimuli/Nonsocial1.png,stimuli/Nonsocial2.png,cs_minus_s,,,,,,,0,0,0,0,,,,,,,,,,,,,0,0,0,2,,,,,,,,,,,,,,,,,,,,,,,,,,,,,,,,,,,,,,,,,,,1737.000641199993,1737.000641199993,1739.8685554999975,9.0,2.857576099981088,space,1.2800031999940984,,,,,,,,,,,,,,,,,,,,,,,,,,,,,,,,,,,,1730.4106075000018,1730.4106075000018,1730.4106075000018,1730.4106075000018,1730.4106075000018,1730.4106075000018,1735.4590338999988,6.0,5.034875600016676,space,1.4967580999946222,,,,,,,,,,,,16,A,2023-12-11_08h44.26.240,gca_avoidance_task,2022.2.4,143.87143653709293,
