posFile,stimFile,cs_plus_s,cs_minus_s,cs_plus_ns,cs_minus_ns,stimtype,position,trialtype,trials_threshold.thisRepN,trials_threshold.thisTrialN,trials_threshold.thisN,trials_threshold.thisIndex,blocks.thisRepN,blocks.thisTrialN,blocks.thisN,blocks.thisIndex,ratingtrials1.thisRepN,ratingtrials1.thisTrialN,ratingtrials1.thisN,ratingtrials1.thisIndex,learning_trials.thisRepN,learning_trials.thisTrialN,learning_trials.thisN,learning_trials.thisIndex,trials.thisRepN,trials.thisTrialN,trials.thisN,trials.thisIndex,ratingtrials2.thisRepN,ratingtrials2.thisTrialN,ratingtrials2.thisN,ratingtrials2.thisIndex,testtrials.thisRepN,testtrials.thisTrialN,testtrials.thisN,testtrials.thisIndex,ratingtrials3.thisRepN,ratingtrials3.thisTrialN,ratingtrials3.thisN,ratingtrials3.thisIndex,textStart.started,spaceStart.started,spaceStart.keys,spaceStart.rt,textPainThreshold.started,spacePainThreshold.started,spacePainThreshold.keys,spacePainThreshold.rt,textRateT.started,text_noPainT.started,text_slightPainT.started,text_highPainT.started,sliderPainT.started,keys_PainT.started,sliderPainT.response,sliderPainT.rt,keys_PainT.keys,keys_PainT.rt,fixcrossT.started,portShock1T.started,portShock1T.stopped,portShock2T.started,portShock2T.stopped,portShock3T.started,portShock3T.stopped,fixcrossT.stopped,text_ETCalibration.started,spaceETCalibration.started,spaceETCalibration.keys,spaceETCalibration.rt,textStartExp.started,spaceStartExp.started,spaceStartExp.keys,spaceStartExp.rt,imageRating.started,sliderStim.started,spaceStim.started,sliderStim.response,sliderStim.rt,spaceStim.keys,spaceStim.rt,textStartTask.started,spaceStartTask.started,spaceStartTask.keys,spaceStartTask.rt,blankScreen.started,blankScreen.stopped,fixcross.started,image.started,roi.started,gazeCursor.started,portImage.started,portImage.stopped,score,outcome,roi.numLooks,roi.timesOn,roi.timesOff,imageFeedback.started,gazeCursor_Feedback.started,soundFeedback.started,portShock1.started,portShock1.stopped,portShock2.started,portShock2.stopped,portShock3.started,portShock3.stopped,soundFeedback.stopped,fixcrossE.started,fixcrossE.stopped,textRepeatTask.started,textboxRepeatInstruction.started,textRepeatSpace.started,spaceRepeatTask.started,spaceRepeatTask.keys,spaceRepeatTask.rt,textRate.started,text_noPain.started,text_slightPain.started,text_highPain.started,sliderPain.started,textSpacePain.started,spacePain.started,sliderPain.response,sliderPain.rt,spacePain.keys,spacePain.rt,textTestInstr.started,spaceTestInstr.started,spaceTestInstr.keys,spaceTestInstr.rt,imageTest.started,roiTest.started,portTestImage.started,portTestImage.stopped,roiTest.numLooks,roiTest.timesOn,roiTest.timesOff,participant,group,date,expName,psychopyVersion,frameRate,
,,,,,,,,,,,,,,,,,,,,,,,,,,,,,,,,,,,,,,,,,26.32917580000003,26.32917580000003,space,10.044445399999859,,,,,,,,,,,,,,,,,,,,,,,,,,,,,,,,,,,,,,,,,,,,,,,,,,,,,,,,,,,,,,,,,,,,,,,,,,,,,,,,,,,,,,,,,,,,,,,5,D,2023-12-07_08h18.35.410,gca_avoidance_task,2022.2.4,144.05983669385918,
,,,,,,,,,,,,,,,,,,,,,,,,,,,,,,,,,,,,,,,,,,,,,36.384147299999995,36.384147299999995,space,2.324772999999823,,,,,,,,,,,,,,,,,,,,,,,,,,,,,,,,,,,,,,,,,,,,,,,,,,,,,,,,,,,,,,,,,,,,,,,,,,,,,,,,,,,,,,,,,,,5,D,2023-12-07_08h18.35.410,gca_avoidance_task,2022.2.4,144.05983669385918,
,,,,,,,,,0,0,0,0,,,,,,,,,,,,,,,,,,,,,,,,,,,,,,,,,,,,,39.75907660000007,39.75907660000007,39.75907660000007,39.75907660000007,39.75907660000007,39.75907660000007,None,None,s,54.5987948999998,94.95124780000015,0.10167479999995521,0.10865400000011505,0.1502918999999565,0.15725330000009308,0.20586210000010396,0.2128010000001268,95.81926880000015,,,,,,,,,,,,,,,,,,,,,,,,,,,,,,,,,,,,,,,,,,,,,,,,,,,,,,,,,,,,,,,,,,,,,,,,,5,D,2023-12-07_08h18.35.410,gca_avoidance_task,2022.2.4,144.05983669385918,
,,,,,,,,,1,0,1,0,,,,,,,,,,,,,,,,,,,,,,,,,,,,,,,,,,,,,95.81926880000015,95.81926880000015,95.81926880000015,95.81926880000015,95.81926880000015,95.81926880000015,0.0,3.9670315000000755,s,8.386305599999787,104.71475260000011,0.10108119999995324,0.10804209999992054,0.14969859999996515,0.15666609999993852,0.20526299999983166,0.212239499999896,105.4716456000001,,,,,,,,,,,,,,,,,,,,,,,,,,,,,,,,,,,,,,,,,,,,,,,,,,,,,,,,,,,,,,,,,,,,,,,,,5,D,2023-12-07_08h18.35.410,gca_avoidance_task,2022.2.4,144.05983669385918,
,,,,,,,,,2,0,2,0,,,,,,,,,,,,,,,,,,,,,,,,,,,,,,,,,,,,,105.4716456000001,105.4716456000001,105.4716456000001,105.4716456000001,105.4716456000001,105.4716456000001,1.0,2.0327592000001005,s,6.4939005999997335,112.4713604000001,0.10078319999979612,0.10773519999997916,0.14938459999984843,0.15634369999997944,0.20500640000000203,0.2119151999997939,113.22134430000006,,,,,,,,,,,,,,,,,,,,,,,,,,,,,,,,,,,,,,,,,,,,,,,,,,,,,,,,,,,,,,,,,,,,,,,,,5,D,2023-12-07_08h18.35.410,gca_avoidance_task,2022.2.4,144.05983669385918,
,,,,,,,,,3,0,3,0,,,,,,,,,,,,,,,,,,,,,,,,,,,,,,,,,,,,,113.22134430000006,113.22134430000006,113.22134430000006,113.22134430000006,113.22134430000006,113.22134430000006,2.0,11.817034799999874,s,22.271382199999834,136.04681130000017,0.10112120000007963,0.10808080000015252,0.14972439999996823,0.15667000000007647,0.20526070000005348,0.21225040000012996,136.79678639999997,,,,,,,,,,,,,,,,,,,,,,,,,,,,,,,,,,,,,,,,,,,,,,,,,,,,,,,,,,,,,,,,,,,,,,,,,5,D,2023-12-07_08h18.35.410,gca_avoidance_task,2022.2.4,144.05983669385918,
,,,,,,,,,4,0,4,0,,,,,,,,,,,,,,,,,,,,,,,,,,,,,,,,,,,,,136.79678639999997,136.79678639999997,136.79678639999997,136.79678639999997,136.79678639999997,136.79678639999997,2.0,2.0018886000000293,s,7.4331682999998065,144.73397870000008,0.10109200000010787,0.10801369999990129,0.14972489999991012,0.15668380000010984,0.20524060000002464,0.21227100000010068,145.49087950000012,,,,,,,,,,,,,,,,,,,,,,,,,,,,,,,,,,,,,,,,,,,,,,,,,,,,,,,,,,,,,,,,,,,,,,,,,5,D,2023-12-07_08h18.35.410,gca_avoidance_task,2022.2.4,144.05983669385918,
,,,,,,,,,5,0,5,0,,,,,,,,,,,,,,,,,,,,,,,,,,,,,,,,,,,,,145.49087950000012,145.49087950000012,145.49087950000012,145.49087950000012,145.49087950000012,145.49087950000012,3.0,0.9480263999998897,s,6.418829099999812,152.4142416000002,0.10496690000013587,0.11189179999996668,0.15357590000007804,0.16054000000008273,0.20218920000002072,0.20912070000008498,,,,,,,,,,,,,,,,,,,,,,,,,,,,,,,,,,,,,,,,,,,,,,,,,,,,,,,,,,,,,,,,,,,,,,,,,,5,D,2023-12-07_08h18.35.410,gca_avoidance_task,2022.2.4,144.05983669385918,
,,,,,,,,,6,0,6,0,,,,,,,,,,,,,,,,,,,,,,,,,,,,,,,,,,,,,153.17112570000018,153.17112570000018,153.17112570000018,153.17112570000018,153.17112570000018,153.17112570000018,3.0,2.61126349999995,s,7.898378800000046,161.57354210000017,0.10278779999998733,0.10969660000000658,0.15139610000005632,0.1583574999999655,0.19997350000016922,0.20693080000000919,162.33045890000017,,,,,,,,,,,,,,,,,,,,,,,,,,,,,,,,,,,,,,,,,,,,,,,,,,,,,,,,,,,,,,,,,,,,,,,,,5,D,2023-12-07_08h18.35.410,gca_avoidance_task,2022.2.4,144.05983669385918,
,,,,,,,,,7,0,7,0,,,,,,,,,,,,,,,,,,,,,,,,,,,,,,,,,,,,,162.33045890000017,162.33045890000017,162.33045890000017,162.33045890000017,162.33045890000017,162.33045890000017,4.0,1.5241679999999178,s,7.194848699999966,170.03845150000006,0.1016505000000052,0.10859290000007604,0.1502887000001465,0.15720009999995455,0.20580169999993814,0.21275730000002113,170.79538850000017,,,,,,,,,,,,,,,,,,,,,,,,,,,,,,,,,,,,,,,,,,,,,,,,,,,,,,,,,,,,,,,,,,,,,,,,,5,D,2023-12-07_08h18.35.410,gca_avoidance_task,2022.2.4,144.05983669385918,
,,,,,,,,,8,0,8,0,,,,,,,,,,,,,,,,,,,,,,,,,,,,,,,,,,,,,170.79538850000017,170.79538850000017,170.79538850000017,170.79538850000017,170.79538850000017,170.79538850000017,5.0,0.7827692000000752,s,6.505981499999734,177.7951326,0.10010609999994813,0.10707920000004378,0.15561999999999898,0.1626518999999007,0.204252600000018,0.21120969999992667,178.5450995000001,,,,,,,,,,,,,,,,,,,,,,,,,,,,,,,,,,,,,,,,,,,,,,,,,,,,,,,,,,,,,,,,,,,,,,,,,5,D,2023-12-07_08h18.35.410,gca_avoidance_task,2022.2.4,144.05983669385918,
,,,,,,,,,9,0,9,0,,,,,,,,,,,,,,,,,,,,,,,,,,,,,,,,,,,,,178.5450995000001,178.5450995000001,178.5450995000001,178.5450995000001,178.5450995000001,178.5450995000001,7.0,1.0407410000000255,s,5.868431599999894,184.91288580000014,0.10277450000012323,0.10974759999999151,0.15138390000015534,0.15833659999998417,0.19998680000003333,0.20692540000004556,185.66981970000006,,,,,,,,,,,,,,,,,,,,,,,,,,,,,,,,,,,,,,,,,,,,,,,,,,,,,,,,,,,,,,,,,,,,,,,,,5,D,2023-12-07_08h18.35.410,gca_avoidance_task,2022.2.4,144.05983669385918,
,,,,,,,,,10,0,10,0,,,,,,,,,,,,,,,,,,,,,,,,,,,,,,,,,,,,,185.66981970000006,185.66981970000006,185.66981970000006,185.66981970000006,185.66981970000006,185.66981970000006,5.0,1.541755399999829,s,9.48824519999971,195.66247829999998,0.09993819999999687,0.1068695999999818,0.1554607999999007,0.16240509999988717,0.2041102000000592,0.21107099999994716,196.41939590000015,,,,,,,,,,,,,,,,,,,,,,,,,,,,,,,,,,,,,,,,,,,,,,,,,,,,,,,,,,,,,,,,,,,,,,,,,5,D,2023-12-07_08h18.35.410,gca_avoidance_task,2022.2.4,144.05983669385918,
,,,,,,,,,11,0,11,0,,,,,,,,,,,,,,,,,,,,,,,,,,,,,,,,,,,,,196.41939590000015,196.41939590000015,196.41939590000015,196.41939590000015,196.41939590000015,196.41939590000015,6.0,1.137966199999937,s,8.018756699999813,204.9329133000001,0.10389860000009321,0.11089450000008583,0.1525543000000198,0.1595012999998744,0.20114399999988564,0.20808329999999842,205.6898443,,,,,,,,,,,,,,,,,,,,,,,,,,,,,,,,,,,,,,,,,,,,,,,,,,,,,,,,,,,,,,,,,,,,,,,,,5,D,2023-12-07_08h18.35.410,gca_avoidance_task,2022.2.4,144.05983669385918,
,,,,,,,,,12,0,12,0,,,,,,,,,,,,,,,,,,,,,,,,,,,,,,,,,,,,,205.6898443,205.6898443,205.6898443,205.6898443,205.6898443,205.6898443,7.0,1.0557165000000168,s,7.386900499999911,213.5853380000001,0.10552529999995386,0.11245140000005449,0.15409100000010767,0.16102490000002945,0.2027060000000347,0.2096788999999717,,,,,,,,,,,,,,,,,,,,,,,,,,,,,,,,,,,,,,,,,,,,,,,,,,,,,,,,,,,,,,,,,,,,,,,,,,5,D,2023-12-07_08h18.35.410,gca_avoidance_task,2022.2.4,144.05983669385918,
,,,,,,,,,13,0,13,0,,,,,,,,,,,,,,,,,,,,,,,,,,,,,,,,,,,,,214.46031960000005,214.46031960000005,214.46031960000005,214.46031960000005,214.46031960000005,214.46031960000005,7.0,1.1875083999998424,s,7.881126399999857,222.87666650000006,0.10095070000011219,0.10788709999997081,0.14958840000008422,0.15647839999996904,0.20508289999997942,0.21203800000012052,223.62661780000008,,,,,,,,,,,,,,,,,,,,,,,,,,,,,,,,,,,,,,,,,,,,,,,,,,,,,,,,,,,,,,,,,,,,,,,,,5,D,2023-12-07_08h18.35.410,gca_avoidance_task,2022.2.4,144.05983669385918,
,,,,,,,,,14,0,14,0,,,,,,,,,,,,,,,,,,,,,,,,,,,,,,,,,,,,,223.62661780000008,223.62661780000008,223.62661780000008,223.62661780000008,223.62661780000008,223.62661780000008,6.0,0.7057944000000589,g,11.714839399999846,236.01503960000014,,,,,,,,,,,,,,,,,,,,,,,,,,,,,,,,,,,,,,,,,,,,,,,,,,,,,,,,,,,,,,,,,,,,,,,,,,,,,,,,5,D,2023-12-07_08h18.35.410,gca_avoidance_task,2022.2.4,144.05983669385918,
,,,,,,,,,,,,,,,,,,,,,,,,,,,,,,,,,,,,,,,,,,,,,,,,,,,,,,,,,,,,,,,,,,,236.01503960000014,236.01503960000014,space,99.46250379999992,,,,,,,,,,,,,,,,,,,,,,,,,,,,,,,,,,,,,,,,,,,,,,,,,,,,,,,,,,,,,,,,,,,,,5,D,2023-12-07_08h18.35.410,gca_avoidance_task,2022.2.4,144.05983669385918,
positions.xlsx,stimuli.xlsx,stimuli/Social2.png,stimuli/Social1.png,stimuli/Nonsocial2.png,stimuli/Nonsocial1.png,cs_minus_s,,,,,,,0,0,0,0,0,0,0,2,,,,,,,,,,,,,,,,,,,,,,,,,,,,,,,,,,,,,,,,,,,,,,,,,,,638.0328914000002,638.0328914000002,space,40.02830039999981,678.1222613,678.1222613,684.0942737,8.0,5.970248399999946,space,2.006810999999743,,,,,,,,,,,,,,,,,,,,,,,,,,,,,,,,,,,,,,,,,,,,,,,,,,,,,,,,,,5,D,2023-12-07_08h18.35.410,gca_avoidance_task,2022.2.4,144.05983669385918,
positions.xlsx,stimuli.xlsx,stimuli/Social2.png,stimuli/Social1.png,stimuli/Nonsocial2.png,stimuli/Nonsocial1.png,cs_minus_ns,,,,,,,0,0,0,0,0,1,1,3,,,,,,,,,,,,,,,,,,,,,,,,,,,,,,,,,,,,,,,,,,,,,,,,,,,,,,,686.1358107000001,686.1358107000001,690.6425799000001,4.0,4.488018600000032,space,1.2596203999999034,,,,,,,,,,,,,,,,,,,,,,,,,,,,,,,,,,,,,,,,,,,,,,,,,,,,,,,,,,5,D,2023-12-07_08h18.35.410,gca_avoidance_task,2022.2.4,144.05983669385918,
positions.xlsx,stimuli.xlsx,stimuli/Social2.png,stimuli/Social1.png,stimuli/Nonsocial2.png,stimuli/Nonsocial1.png,cs_plus_s,,,,,,,0,0,0,0,0,2,2,0,,,,,,,,,,,,,,,,,,,,,,,,,,,,,,,,,,,,,,,,,,,,,,,,,,,,,,,691.9411316000001,691.9411316000001,694.2812935000002,6.0,2.331490799999983,space,1.2208953999997902,,,,,,,,,,,,,,,,,,,,,,,,,,,,,,,,,,,,,,,,,,,,,,,,,,,,,,,,,,5,D,2023-12-07_08h18.35.410,gca_avoidance_task,2022.2.4,144.05983669385918,
positions.xlsx,stimuli.xlsx,stimuli/Social2.png,stimuli/Social1.png,stimuli/Nonsocial2.png,stimuli/Nonsocial1.png,cs_plus_ns,,,,,,,0,0,0,0,0,3,3,1,,,,,,,,,,,,,,,,,,,,,,,,,,,,,,,,,,,,,,,,,,,,,,,,,,,,,,,695.5313108,695.5313108,698.0797642,5.0,2.536173399999825,space,1.04558639999982,,,,,,,,,,,,,,,,,,,,,,,,,,,,,,,,,,,,,,,,,,,,,,,,,,,,,,,,,,5,D,2023-12-07_08h18.35.410,gca_avoidance_task,2022.2.4,144.05983669385918,
positions.xlsx,stimuli.xlsx,stimuli/Social2.png,stimuli/Social1.png,stimuli/Nonsocial2.png,stimuli/Nonsocial1.png,,"(0.7, 0.5)",cs_plus_ns,,,,,0,0,0,0,,,,,0,0,0,10,,,,,,,,,,,,,,,,,,,,,,,,,,,,,,,,,,,,,,,,,,,,,,,,,,,,,,,,,,699.1422307,699.1422307,space,38.11929499999974,739.7517285000001,741.1683185000002,739.2586785000001,741.1683185000002,741.1683185000002,741.1683185000002,0.016398500000150307,0.027014900000040143,0,shock,1,[0.1876977000001716],[0.1877014000001509],741.3627514,741.3627514,0.02283069999998588,0.02283069999998588,0.032073599999876024,0.052876199999900564,0.05989950000002864,0.10147209999990991,0.10840680000001157,1.0181230999999116,744.8418166000001,748.8000096000001,,,,,,,,,,,,,,,,,,,,,,,,,,,,,5,D,2023-12-07_08h18.35.410,gca_avoidance_task,2022.2.4,144.05983669385918,
positions.xlsx,stimuli.xlsx,stimuli/Social2.png,stimuli/Social1.png,stimuli/Nonsocial2.png,stimuli/Nonsocial1.png,,"(-0.7, -0.5)",cs_plus_s,,,,,0,0,0,0,,,,,0,1,1,1,,,,,,,,,,,,,,,,,,,,,,,,,,,,,,,,,,,,,,,,,,,,,,,,,,,,,,,,,,,,,,749.3068860000001,750.8068764000002,748.8000096000001,750.8068764000002,750.8068764000002,750.8068764000002,0.0069163999999091175,0.013364299999921059,0,shock,1,[0.326779199999919],[0.326782699999967],751.1401322000002,751.1401322000002,0.007926200000156314,0.007926200000156314,0.018398700000034296,0.05316650000008849,0.06005279999999402,0.10173810000014782,0.10867570000004889,1.0044650000002093,754.6330898000001,758.1538432,,,,,,,,,,,,,,,,,,,,,,,,,,,,,5,D,2023-12-07_08h18.35.410,gca_avoidance_task,2022.2.4,144.05983669385918,
positions.xlsx,stimuli.xlsx,stimuli/Social2.png,stimuli/Social1.png,stimuli/Nonsocial2.png,stimuli/Nonsocial1.png,,"(0.7, 0.5)",cs_minus_ns,,,,,0,0,0,0,,,,,0,2,2,14,,,,,,,,,,,,,,,,,,,,,,,,,,,,,,,,,,,,,,,,,,,,,,,,,,,,,,,,,,,,,,758.6606673000001,760.2509023,758.1538432,760.2509023,760.2509023,760.2509023,0.007338399999980538,0.012955499999861786,5,reward,1,[2.458008899999868],[2.458012800000006],762.7230180000001,762.7230180000001,0.008309099999905811,0.008309099999905811,0.025817399999823465,0.053538099999968836,0.06055560000004334,0.10214889999997467,0.1091143999999531,1.0049365999998372,766.2089851000001,769.743594,,,,,,,,,,,,,,,,,,,,,,,,,,,,,5,D,2023-12-07_08h18.35.410,gca_avoidance_task,2022.2.4,144.05983669385918,
positions.xlsx,stimuli.xlsx,stimuli/Social2.png,stimuli/Social1.png,stimuli/Nonsocial2.png,stimuli/Nonsocial1.png,,"(-0.7, -0.5)",cs_plus_ns,,,,,0,0,0,0,,,,,0,3,3,9,,,,,,,,,,,,,,,,,,,,,,,,,,,,,,,,,,,,,,,,,,,,,,,,,,,,,,,,,,,,,,770.2504792,771.6046168,769.743594,771.6046168,771.6046168,771.6046168,0.006824400000141395,0.013229000000137603,5,shock,1,[0.36833070000011503],[0.368334300000015],771.9796014000001,771.9796014000001,0.007751599999892278,0.007751599999892278,0.01824599999986276,0.052919299999985014,0.05987929999992048,0.1014901999999438,0.10844150000002628,1.004260499999873,775.4725059,779.6668187,,,,,,,,,,,,,,,,,,,,,,,,,,,,,5,D,2023-12-07_08h18.35.410,gca_avoidance_task,2022.2.4,144.05983669385918,
positions.xlsx,stimuli.xlsx,stimuli/Social2.png,stimuli/Social1.png,stimuli/Nonsocial2.png,stimuli/Nonsocial1.png,,"(-0.7, -0.5)",cs_minus_s,,,,,0,0,0,0,,,,,0,4,4,5,,,,,,,,,,,,,,,,,,,,,,,,,,,,,,,,,,,,,,,,,,,,,,,,,,,,,,,,,,,,,,780.1737048,782.0208460000001,779.6668187,782.0208460000001,782.0208460000001,782.0208460000001,0.007524799999828247,0.013211699999828852,10,reward,1,[0.18087499999978718],[0.18087869999999384],782.2083563000001,782.2083563000001,0.0073683999999047955,0.0073683999999047955,0.018354999999928623,0.053106399999933274,0.06004480000001422,0.10167649999993955,0.10862190000011651,1.0043309000000136,785.7012869,790.1177987000001,,,,,,,,,,,,,,,,,,,,,,,,,,,,,5,D,2023-12-07_08h18.35.410,gca_avoidance_task,2022.2.4,144.05983669385918,
positions.xlsx,stimuli.xlsx,stimuli/Social2.png,stimuli/Social1.png,stimuli/Nonsocial2.png,stimuli/Nonsocial1.png,,"(0.7, 0.5)",cs_minus_s,,,,,0,0,0,0,,,,,0,5,5,6,,,,,,,,,,,,,,,,,,,,,,,,,,,,,,,,,,,,,,,,,,,,,,,,,,,,,,,,,,,,,,790.6246605000001,791.9787816,790.1177987000001,791.9787816,791.9787816,791.9787816,0.006182599999874583,0.013431200000013632,15,reward,1,[0.17394309999986035],[0.1739465000000564],792.1593311000001,792.1593311000001,0.006874400000015157,0.006874400000015157,0.018979699999817967,0.05358269999987897,0.060529299999871,0.10221349999983431,0.10918449999985569,1.0049753999999211,795.6522834,799.3465945,,,,,,,,,,,,,,,,,,,,,,,,,,,,,5,D,2023-12-07_08h18.35.410,gca_avoidance_task,2022.2.4,144.05983669385918,
positions.xlsx,stimuli.xlsx,stimuli/Social2.png,stimuli/Social1.png,stimuli/Nonsocial2.png,stimuli/Nonsocial1.png,,"(0.7, -0.5)",cs_plus_s,,,,,0,0,0,0,,,,,0,6,6,3,,,,,,,,,,,,,,,,,,,,,,,,,,,,,,,,,,,,,,,,,,,,,,,,,,,,,,,,,,,,,,799.8534914000002,801.4784018,799.3465945,801.4784018,801.4784018,801.4784018,0.006643499999881897,0.013168199999881836,15,shock,1,[0.2849271999998564],[0.2849312999999256],801.770072,801.770072,0.008405499999980748,0.008405499999980748,0.018217699999922843,0.05288210000003346,0.05981640000004518,0.10152340000013282,0.10847400000011476,1.0042539999999462,805.2629977000001,808.8739842,,,,,,,,,,,,,,,,,,,,,,,,,,,,,5,D,2023-12-07_08h18.35.410,gca_avoidance_task,2022.2.4,144.05983669385918,
positions.xlsx,stimuli.xlsx,stimuli/Social2.png,stimuli/Social1.png,stimuli/Nonsocial2.png,stimuli/Nonsocial1.png,,"(-0.7, 0.5)",cs_plus_s,,,,,0,0,0,0,,,,,0,7,7,0,,,,,,,,,,,,,,,,,,,,,,,,,,,,,,,,,,,,,,,,,,,,,,,,,,,,,,,,,,,,,,809.3808544000001,810.9919065000001,808.8739842,810.9919065000001,810.9919065000001,810.9919065000001,0.006398300000000745,0.013130900000078327,15,shock,1,[0.3542942999999923],[0.35429800000019895],811.3530203,811.3530203,0.008223199999974895,0.008223199999974895,0.01820369999995819,0.052897100000109276,0.059849500000154876,0.10147860000006403,0.10847230000013042,1.0042582000000948,814.8460001000001,818.3805519,,,,,,,,,,,,,,,,,,,,,,,,,,,,,5,D,2023-12-07_08h18.35.410,gca_avoidance_task,2022.2.4,144.05983669385918,
positions.xlsx,stimuli.xlsx,stimuli/Social2.png,stimuli/Social1.png,stimuli/Nonsocial2.png,stimuli/Nonsocial1.png,,"(0.7, -0.5)",cs_minus_s,,,,,0,0,0,0,,,,,0,8,8,7,,,,,,,,,,,,,,,,,,,,,,,,,,,,,,,,,,,,,,,,,,,,,,,,,,,,,,,,,,,,,,818.8874375,820.491559,818.3805519,820.491559,820.491559,820.491559,0.0066987000000153785,0.012987800000018979,20,reward,1,[0.2847526000000471],[0.2847563000000264],820.7901517,820.7901517,0.006982399999969857,0.006982399999969857,0.025210000000015498,0.052990000000136206,0.05988739999997961,0.10159790000011526,0.10847450000005665,1.00425580000001,824.2761855000001,827.9427148,,,,,,,,,,,,,,,,,,,,,,,,,,,,,5,D,2023-12-07_08h18.35.410,gca_avoidance_task,2022.2.4,144.05983669385918,
positions.xlsx,stimuli.xlsx,stimuli/Social2.png,stimuli/Social1.png,stimuli/Nonsocial2.png,stimuli/Nonsocial1.png,,"(-0.7, 0.5)",cs_minus_s,,,,,0,0,0,0,,,,,0,9,9,4,,,,,,,,,,,,,,,,,,,,,,,,,,,,,,,,,,,,,,,,,,,,,,,,,,,,,,,,,,,,,,828.4495421000001,829.5884062,827.9427148,829.5884062,829.5884062,829.5884062,0.006037099999957718,0.01327579999997397,25,reward,1,[0.34757730000001175],[0.3475811999999223],829.9425938000002,829.9425938000002,0.00669249999987187,0.00669249999987187,0.01815859999987879,0.05278499999985797,0.05977709999979197,0.10138689999985218,0.10840439999992668,1.0041721999998572,833.4354889000001,837.9075747000002,,,,,,,,,,,,,,,,,,,,,,,,,,,,,5,D,2023-12-07_08h18.35.410,gca_avoidance_task,2022.2.4,144.05983669385918,
positions.xlsx,stimuli.xlsx,stimuli/Social2.png,stimuli/Social1.png,stimuli/Nonsocial2.png,stimuli/Nonsocial1.png,,"(-0.7, 0.5)",cs_minus_ns,,,,,0,0,0,0,,,,,0,10,10,12,,,,,,,,,,,,,,,,,,,,,,,,,,,,,,,,,,,,,,,,,,,,,,,,,,,,,,,,,,,,,,838.4144234,840.3935249000001,837.9075747000002,840.3935249000001,840.3935249000001,840.3935249000001,0.007107499999847278,0.013323599999921498,30,reward,1,[0.1739026999998714],[0.1739063999998507],840.5740873,840.5740873,0.007584499999893524,0.007584499999893524,0.018616599999859318,0.053235799999811206,0.06027759999983573,0.10187980000000607,0.10882010000000264,1.004609999999957,844.0669926,848.3515927000001,,,,,,,,,,,,,,,,,,,,,,,,,,,,,5,D,2023-12-07_08h18.35.410,gca_avoidance_task,2022.2.4,144.05983669385918,
positions.xlsx,stimuli.xlsx,stimuli/Social2.png,stimuli/Social1.png,stimuli/Nonsocial2.png,stimuli/Nonsocial1.png,,"(-0.7, -0.5)",cs_minus_ns,,,,,0,0,0,0,,,,,0,11,11,13,,,,,,,,,,,,,,,,,,,,,,,,,,,,,,,,,,,,,,,,,,,,,,,,,,,,,,,,,,,,,,848.8584500000002,850.5875484000001,848.3515927000001,850.5875484000001,850.5875484000001,850.5875484000001,0.006752499999947759,0.013133400000015172,35,reward,1,[0.2155543999999736],[0.21555820000003223],850.8097765,850.8097765,0.007693299999800729,0.007693299999800729,0.018488699999807068,0.053179999999883876,0.06011749999993299,0.10182249999979831,0.10878349999984493,1.0045056999999815,854.3027033000001,857.8095399000001,,,,,,,,,,,,,,,,,,,,,,,,,,,,,5,D,2023-12-07_08h18.35.410,gca_avoidance_task,2022.2.4,144.05983669385918,
positions.xlsx,stimuli.xlsx,stimuli/Social2.png,stimuli/Social1.png,stimuli/Nonsocial2.png,stimuli/Nonsocial1.png,,"(0.7, -0.5)",cs_plus_ns,,,,,0,0,0,0,,,,,0,12,12,11,,,,,,,,,,,,,,,,,,,,,,,,,,,,,,,,,,,,,,,,,,,,,,,,,,,,,,,,,,,,,,858.316454,860.1427293000002,857.8095399000001,860.1427293000002,860.1427293000002,860.1427293000002,0.006936400000085996,0.01337310000008074,35,shock,1,[0.22969620000003488],[0.2296998000001622],860.3788648,860.3788648,0.007730399999900328,0.007730399999900328,0.018361099999992803,0.05300990000000638,0.05996759999993628,0.1016101999998682,0.10852920000002086,1.0043319999999767,863.8717809,868.253553,,,,,,,,,,,,,,,,,,,,,,,,,,,,,5,D,2023-12-07_08h18.35.410,gca_avoidance_task,2022.2.4,144.05983669385918,
positions.xlsx,stimuli.xlsx,stimuli/Social2.png,stimuli/Social1.png,stimuli/Nonsocial2.png,stimuli/Nonsocial1.png,,"(0.7, 0.5)",cs_plus_s,,,,,0,0,0,0,,,,,0,13,13,2,,,,,,,,,,,,,,,,,,,,,,,,,,,,,,,,,,,,,,,,,,,,,,,,,,,,,,,,,,,,,,868.7605254,870.0243044000001,868.253553,870.0243044000001,870.0243044000001,870.0243044000001,0.006128900000021531,0.013058900000032736,35,shock,1,[0.28469350000000304],[0.2846971000001304],870.3159291000002,870.3159291000002,0.007679499999994732,0.007679499999994732,0.01831820000006701,0.053010500000027605,0.059976000000006024,0.10165330000018002,0.10859870000012961,1.0043404000000464,873.8089281,877.3851389000001,,,,,,,,,,,,,,,,,,,,,,,,,,,,,5,D,2023-12-07_08h18.35.410,gca_avoidance_task,2022.2.4,144.05983669385918,
positions.xlsx,stimuli.xlsx,stimuli/Social2.png,stimuli/Social1.png,stimuli/Nonsocial2.png,stimuli/Nonsocial1.png,,"(-0.7, 0.5)",cs_plus_ns,,,,,0,0,0,0,,,,,0,14,14,8,,,,,,,,,,,,,,,,,,,,,,,,,,,,,,,,,,,,,,,,,,,,,,,,,,,,,,,,,,,,,,877.8920138000001,879.4961144000001,877.3851389000001,879.4961144000001,879.4961144000001,879.4961144000001,0.0070266000000174245,0.013121199999886812,35,shock,1,[1.347465899999861],[1.347469799999999],880.8501999,880.8501999,0.00820160000012038,0.00820160000012038,0.01818890000004103,0.05284070000016072,0.059797100000196224,0.10145480000005591,0.10842990000014652,1.0042152000000897,884.3431936000002,888.6069189000002,,,,,,,,,,,,,,,,,,,,,,,,,,,,,5,D,2023-12-07_08h18.35.410,gca_avoidance_task,2022.2.4,144.05983669385918,
positions.xlsx,stimuli.xlsx,stimuli/Social2.png,stimuli/Social1.png,stimuli/Nonsocial2.png,stimuli/Nonsocial1.png,,"(0.7, -0.5)",cs_minus_ns,,,,,0,0,0,0,,,,,0,15,15,15,,,,,,,,,,,,,,,,,,,,,,,,,,,,,,,,,,,,,,,,,,,,,,,,,,,,,,,,,,,,,,889.1137993,891.0790052,888.6069189000002,891.0790052,891.0790052,891.0790052,0.006942900000012742,0.013251899999886518,40,reward,1,[0.8756620999997722],[0.8756656999998995],891.9608958000001,891.9608958000001,0.0074918000000252505,0.0074918000000252505,0.018119500000011612,0.05284299999993891,0.059783900000184076,0.10140069999988555,0.10835390000011103,1.004190600000129,895.4538190000001,899.2939686000002,,,,,,,,,,,,,,,,,,,,,,,,,,,,,5,D,2023-12-07_08h18.35.410,gca_avoidance_task,2022.2.4,144.05983669385918,
positions.xlsx,stimuli.xlsx,stimuli/Social2.png,stimuli/Social1.png,stimuli/Nonsocial2.png,stimuli/Nonsocial1.png,,"(0.7, 0.5)",cs_plus_s,,,,,0,0,0,0,,,,,1,0,16,2,,,,,,,,,,,,,,,,,,,,,,,,,,,,,,,,,,,,,,,,,,,,,,,,,,,,,,,,,,,,,,899.8008673000002,901.7799280000002,899.2939686000002,901.7799280000002,901.7799280000002,901.7799280000002,0.005872500000350556,0.013074800000140385,40,none,0,,,906.7936415000001,906.7936415000001,0.016764599999987695,0.016764599999987695,0.026839900000140915,0.05447600000024977,0.06143450000035955,0.10308550000036121,0.11005190000014409,1.012840000000324,910.2796186000003,914.0225955000003,,,,,,,,,,,,,,,,,,,,,,,,,,,,,5,D,2023-12-07_08h18.35.410,gca_avoidance_task,2022.2.4,144.05983669385918,
positions.xlsx,stimuli.xlsx,stimuli/Social2.png,stimuli/Social1.png,stimuli/Nonsocial2.png,stimuli/Nonsocial1.png,,"(-0.7, 0.5)",cs_minus_s,,,,,0,0,0,0,,,,,1,1,17,4,,,,,,,,,,,,,,,,,,,,,,,,,,,,,,,,,,,,,,,,,,,,,,,,,,,,,,,,,,,,,,914.5294304000001,916.1474455,914.0225955000003,916.1474455,916.1474455,916.1474455,0.0060675999998238694,0.013431100000161678,45,reward,1,[0.3891490999999405],[0.38915259999976115],916.5432490000001,916.5432490000001,0.006780299999718409,0.006780299999718409,0.01851219999980458,0.05321179999964443,0.06024359999992157,0.101832899999863,0.10876469999993787,1.0045319999999265,920.0362043000002,923.640263,,,,,,,,,,,,,,,,,,,,,,,,,,,,,5,D,2023-12-07_08h18.35.410,gca_avoidance_task,2022.2.4,144.05983669385918,
positions.xlsx,stimuli.xlsx,stimuli/Social2.png,stimuli/Social1.png,stimuli/Nonsocial2.png,stimuli/Nonsocial1.png,,"(-0.7, -0.5)",cs_plus_s,,,,,0,0,0,0,,,,,1,2,18,1,,,,,,,,,,,,,,,,,,,,,,,,,,,,,,,,,,,,,,,,,,,,,,,,,,,,,,,,,,,,,,924.1471432000001,925.6123339000003,923.640263,925.6123339000003,925.6123339000003,925.6123339000003,0.005869900000107009,0.012987500000235741,45,shock,1,[0.4097520000000259],[0.4097556000001532],926.0289771,926.0289771,0.00745439999991504,0.00745439999991504,0.018623699999807286,0.05325269999957527,0.06024539999998524,0.10188519999974233,0.10880969999971057,1.0046539999998458,929.5219789,933.4453690000003,,,,,,,,,,,,,,,,,,,,,,,,,,,,,5,D,2023-12-07_08h18.35.410,gca_avoidance_task,2022.2.4,144.05983669385918,
positions.xlsx,stimuli.xlsx,stimuli/Social2.png,stimuli/Social1.png,stimuli/Nonsocial2.png,stimuli/Nonsocial1.png,,"(-0.7, 0.5)",cs_plus_s,,,,,0,0,0,0,,,,,1,3,19,0,,,,,,,,,,,,,,,,,,,,,,,,,,,,,,,,,,,,,,,,,,,,,,,,,,,,,,,,,,,,,,933.9522706999999,935.5286039,933.4453690000003,935.5286039,935.5286039,935.5286039,0.006297800000083953,0.013384700000187877,45,shock,1,[0.40328580000004877],[0.40328960000033476],935.9313405,935.9313405,0.006937999999991007,0.006937999999991007,0.01151320000008127,0.05316560000028403,0.060187000000041735,0.10177940000039598,0.10875920000034967,1.004541700000118,939.4312959000001,943.0213924000002,,,,,,,,,,,,,,,,,,,,,,,,,,,,,5,D,2023-12-07_08h18.35.410,gca_avoidance_task,2022.2.4,144.05983669385918,
positions.xlsx,stimuli.xlsx,stimuli/Social2.png,stimuli/Social1.png,stimuli/Nonsocial2.png,stimuli/Nonsocial1.png,,"(-0.7, -0.5)",cs_minus_ns,,,,,0,0,0,0,,,,,1,4,20,13,,,,,,,,,,,,,,,,,,,,,,,,,,,,,,,,,,,,,,,,,,,,,,,,,,,,,,,,,,,,,,943.528309,945.160134,943.0213924000002,945.160134,945.160134,945.160134,0.006592400000045018,0.013012200000048324,50,reward,1,[1.2291847999999845],[1.2291884000001119],946.3962604000001,946.3962604000001,0.0076263000000835746,0.0076263000000835746,0.018773500000406784,0.053420200000346085,0.0603889000003619,0.10200570000006337,0.10896310000043741,1.0047496000001956,949.8892088,953.8682231999999,,,,,,,,,,,,,,,,,,,,,,,,,,,,,5,D,2023-12-07_08h18.35.410,gca_avoidance_task,2022.2.4,144.05983669385918,
positions.xlsx,stimuli.xlsx,stimuli/Social2.png,stimuli/Social1.png,stimuli/Nonsocial2.png,stimuli/Nonsocial1.png,,"(0.7, -0.5)",cs_plus_ns,,,,,0,0,0,0,,,,,1,5,21,11,,,,,,,,,,,,,,,,,,,,,,,,,,,,,,,,,,,,,,,,,,,,,,,,,,,,,,,,,,,,,,954.3750668999999,955.7361001000002,953.8682231999999,955.7361001000002,955.7361001000002,955.7361001000002,0.006622299999889947,0.01314619999993738,50,shock,1,[0.2779985000001943],[0.2780023999998775],956.0208221,956.0208221,0.00808839999990596,0.00808839999990596,0.018511400000079448,0.05323210000005929,0.06019900000001144,0.10182380000014746,0.10876409999991665,1.004583399999774,959.5137634,963.4303207,,,,,,,,,,,,,,,,,,,,,,,,,,,,,5,D,2023-12-07_08h18.35.410,gca_avoidance_task,2022.2.4,144.05983669385918,
positions.xlsx,stimuli.xlsx,stimuli/Social2.png,stimuli/Social1.png,stimuli/Nonsocial2.png,stimuli/Nonsocial1.png,,"(0.7, 0.5)",cs_minus_ns,,,,,0,0,0,0,,,,,1,6,22,14,,,,,,,,,,,,,,,,,,,,,,,,,,,,,,,,,,,,,,,,,,,,,,,,,,,,,,,,,,,,,,963.9372220000002,965.4996277000002,963.4303207,965.4996277000002,965.4996277000002,965.4996277000002,0.007810900000094989,0.0129213999998683,55,reward,1,[0.6389022000003024],[0.638905700000123],966.1454756999999,966.1454756999999,0.008455400000002555,0.008455400000002555,0.018222400000013295,0.05290880000029574,0.05981000000019776,0.10148260000005394,0.10842219999994995,1.004231400000208,969.6383582999999,973.9368864999999,,,,,,,,,,,,,,,,,,,,,,,,,,,,,5,D,2023-12-07_08h18.35.410,gca_avoidance_task,2022.2.4,144.05983669385918,
positions.xlsx,stimuli.xlsx,stimuli/Social2.png,stimuli/Social1.png,stimuli/Nonsocial2.png,stimuli/Nonsocial1.png,,"(0.7, 0.5)",cs_plus_ns,,,,,0,0,0,0,,,,,1,7,23,10,,,,,,,,,,,,,,,,,,,,,,,,,,,,,,,,,,,,,,,,,,,,,,,,,,,,,,,,,,,,,,974.4437058000001,975.8256097000001,973.9368864999999,975.8256097000001,975.8256097000001,975.8256097000001,0.006890200000270852,0.01298720000022513,55,none,0,,,980.8392931000001,980.8392931000001,0.014344900000196503,0.014344900000196503,0.026641700000254787,0.05439180000030319,0.061321700000007695,0.10299850000001243,0.10997730000008232,1.0126924000001054,984.3253326000001,987.8529490000003,,,,,,,,,,,,,,,,,,,,,,,,,,,,,5,D,2023-12-07_08h18.35.410,gca_avoidance_task,2022.2.4,144.05983669385918,
positions.xlsx,stimuli.xlsx,stimuli/Social2.png,stimuli/Social1.png,stimuli/Nonsocial2.png,stimuli/Nonsocial1.png,,"(-0.7, -0.5)",cs_plus_ns,,,,,0,0,0,0,,,,,1,8,24,9,,,,,,,,,,,,,,,,,,,,,,,,,,,,,,,,,,,,,,,,,,,,,,,,,,,,,,,,,,,,,,988.3598657,989.9639451,987.8529490000003,989.9639451,989.9639451,989.9639451,0.006636799999796494,0.013247999999748572,55,none,0,,,994.9706643000002,994.9706643000002,0.015147899999647052,0.015147899999647052,0.02001239999981408,0.05468569999993633,0.061644199999591365,0.1032854000000043,0.11032239999985904,1.0129792999996425,998.4636336000001,1002.8731846000003,,,,,,,,,,,,,,,,,,,,,,,,,,,,,5,D,2023-12-07_08h18.35.410,gca_avoidance_task,2022.2.4,144.05983669385918,
positions.xlsx,stimuli.xlsx,stimuli/Social2.png,stimuli/Social1.png,stimuli/Nonsocial2.png,stimuli/Nonsocial1.png,,"(-0.7, -0.5)",cs_minus_s,,,,,0,0,0,0,,,,,1,9,25,5,,,,,,,,,,,,,,,,,,,,,,,,,,,,,,,,,,,,,,,,,,,,,,,,,,,,,,,,,,,,,,1003.3800530000001,1005.0258317999999,1002.8731846000003,1005.0258317999999,1005.0258317999999,1005.0258317999999,0.005837900000187801,0.013136900000063179,60,reward,1,[0.42373070000030566],[0.42373429999997825],1005.4563755000001,1005.4563755000001,0.00717259999964881,0.00717259999964881,0.018569899999874906,0.05323980000002848,0.06016639999961626,0.10181459999967046,0.10878449999972872,1.0046582999998463,1008.9493190999999,1012.8241330000003,,,,,,,,,,,,,,,,,,,,,,,,,,,,,5,D,2023-12-07_08h18.35.410,gca_avoidance_task,2022.2.4,144.05983669385918,
positions.xlsx,stimuli.xlsx,stimuli/Social2.png,stimuli/Social1.png,stimuli/Nonsocial2.png,stimuli/Nonsocial1.png,,"(-0.7, 0.5)",cs_minus_ns,,,,,0,0,0,0,,,,,1,10,26,12,,,,,,,,,,,,,,,,,,,,,,,,,,,,,,,,,,,,,,,,,,,,,,,,,,,,,,,,,,,,,,1013.3310217999999,1015.1226457,1012.8241330000003,1015.1226457,1015.1226457,1015.1226457,0.006722699999954784,0.01329570000007152,65,reward,1,[0.6949017000001732],[0.7017971000000216],1015.8310147,1015.8310147,0.00809079999999085,0.00809079999999085,0.018280000000231666,0.05286609999984648,0.059833899999830464,0.1014882999998008,0.10846559999981764,1.0042539999999462,1019.3238782000001,1023.1570852000002,,,,,,,,,,,,,,,,,,,,,,,,,,,,,5,D,2023-12-07_08h18.35.410,gca_avoidance_task,2022.2.4,144.05983669385918,
positions.xlsx,stimuli.xlsx,stimuli/Social2.png,stimuli/Social1.png,stimuli/Nonsocial2.png,stimuli/Nonsocial1.png,,"(-0.7, 0.5)",cs_plus_ns,,,,,0,0,0,0,,,,,1,11,27,8,,,,,,,,,,,,,,,,,,,,,,,,,,,,,,,,,,,,,,,,,,,,,,,,,,,,,,,,,,,,,,1023.6639872000003,1024.6917056,1023.1570852000002,1024.6917056,1024.6917056,1024.6917056,0.007211300000108167,0.012979499999801192,65,none,0,,,1029.6984749,1029.6984749,0.013824499999827822,0.013824499999827822,0.01975670000001628,0.05446250000022701,0.061362800000097195,0.10300079999979062,0.11001519999990705,1.012735899999825,1033.1914102000003,1037.1426922000003,,,,,,,,,,,,,,,,,,,,,,,,,,,,,5,D,2023-12-07_08h18.35.410,gca_avoidance_task,2022.2.4,144.05983669385918,
positions.xlsx,stimuli.xlsx,stimuli/Social2.png,stimuli/Social1.png,stimuli/Nonsocial2.png,stimuli/Nonsocial1.png,,"(0.7, -0.5)",cs_minus_ns,,,,,0,0,0,0,,,,,1,12,28,15,,,,,,,,,,,,,,,,,,,,,,,,,,,,,,,,,,,,,,,,,,,,,,,,,,,,,,,,,,,,,,1037.6495531000003,1038.8856001000001,1037.1426922000003,1038.8856001000001,1038.8856001000001,1038.8856001000001,0.006389099999978498,0.013108699999975215,70,reward,1,[0.5003082000002905],[0.5003120999999737],1039.3925311,1039.3925311,0.008028600000216102,0.008028600000216102,0.018055200000162586,0.05271450000009281,0.0597075999999106,0.10134169999992082,0.10833779999984472,1.0040816999999151,1042.8854941000002,1046.6006063000002,,,,,,,,,,,,,,,,,,,,,,,,,,,,,5,D,2023-12-07_08h18.35.410,gca_avoidance_task,2022.2.4,144.05983669385918,
positions.xlsx,stimuli.xlsx,stimuli/Social2.png,stimuli/Social1.png,stimuli/Nonsocial2.png,stimuli/Nonsocial1.png,,"(0.7, 0.5)",cs_minus_s,,,,,0,0,0,0,,,,,1,13,29,6,,,,,,,,,,,,,,,,,,,,,,,,,,,,,,,,,,,,,,,,,,,,,,,,,,,,,,,,,,,,,,1047.1074747,1048.6074648000001,1046.6006063000002,1048.6074648000001,1048.6074648000001,1048.6074648000001,0.00598760000002585,0.013084300000173243,75,reward,1,[0.48597330000029615],[0.4859771000001274],1049.1004603,1049.1004603,0.006958699999813689,0.006958699999813689,0.01843959999996514,0.05309080000006361,0.060081199999785895,0.10174330000018017,0.10865130000001955,1.0044677000000775,1052.5934394000003,1057.0654342999999,,,,,,,,,,,,,,,,,,,,,,,,,,,,,5,D,2023-12-07_08h18.35.410,gca_avoidance_task,2022.2.4,144.05983669385918,
positions.xlsx,stimuli.xlsx,stimuli/Social2.png,stimuli/Social1.png,stimuli/Nonsocial2.png,stimuli/Nonsocial1.png,,"(0.7, -0.5)",cs_plus_s,,,,,0,0,0,0,,,,,1,14,30,3,,,,,,,,,,,,,,,,,,,,,,,,,,,,,,,,,,,,,,,,,,,,,,,,,,,,,,,,,,,,,,1057.5723219,1058.9820305,1057.0654342999999,1058.9820305,1058.9820305,1058.9820305,0.006231899999875168,0.013091000000258646,75,none,0,,,1063.988814,1063.988814,0.013401499999872613,0.013401499999872613,0.01985259999992195,0.05448160000014468,0.06144670000003316,0.1030851000000439,0.11002680000001419,1.0127919999999904,1067.4817072000003,1071.9190504,,,,,,,,,,,,,,,,,,,,,,,,,,,,,5,D,2023-12-07_08h18.35.410,gca_avoidance_task,2022.2.4,144.05983669385918,
positions.xlsx,stimuli.xlsx,stimuli/Social2.png,stimuli/Social1.png,stimuli/Nonsocial2.png,stimuli/Nonsocial1.png,,"(0.7, -0.5)",cs_minus_s,,,,,0,0,0,0,,,,,1,15,31,7,,,,,,,,,,,,,,,,,,,,,,,,,,,,,,,,,,,,,,,,,,,,,,,,,,,,,,,,,,,,,,1072.4259314000003,1073.5717204,1071.9190504,1073.5717204,1073.5717204,1073.5717204,0.006063600000288716,0.013471000000208733,80,reward,1,[0.5491773000003377],[0.549181100000169],1074.1272305,1074.1272305,0.0071226000000024214,0.0071226000000024214,0.017962799999622803,0.05268039999964458,0.05960269999968659,0.10129879999976765,0.10825049999994008,1.0040179999996326,1077.6201541000003,1081.0088983000003,,,,,,,,,,,,,,,,,,,,,,,,,,,,,5,D,2023-12-07_08h18.35.410,gca_avoidance_task,2022.2.4,144.05983669385918,
positions.xlsx,stimuli.xlsx,stimuli/Social2.png,stimuli/Social1.png,stimuli/Nonsocial2.png,stimuli/Nonsocial1.png,,"(-0.7, -0.5)",cs_plus_s,,,,,0,0,0,0,,,,,,,,,0,0,0,1,,,,,,,,,,,,,,,,,,,,,,,,,,,,,,,,,,,,,,,,,,,,,,,,,,,,,,,,,,1095.4666662000002,1096.9527115000003,1094.9666822000002,1096.9527115000003,1096.9527115000003,1096.9527115000003,0.005989700000100129,0.013420600000245031,80,none,0,,,1101.9594734,1101.9594734,0.013546000000133063,0.013546000000133063,0.020170100000086677,0.054856000000199856,0.06176159999995434,0.10341820000030566,0.11041060000025027,1.0131211000002622,1105.4524053000002,1109.5841777000003,1081.0088983000003,1081.0088983000003,1081.0088983000003,1081.0088983000003,space,12.396529699999974,,,,,,,,,,,,,,,,,,,,,,,5,D,2023-12-07_08h18.35.410,gca_avoidance_task,2022.2.4,144.05983669385918,
positions.xlsx,stimuli.xlsx,stimuli/Social2.png,stimuli/Social1.png,stimuli/Nonsocial2.png,stimuli/Nonsocial1.png,,"(0.7, 0.5)",cs_minus_s,,,,,0,0,0,0,,,,,,,,,0,1,1,6,,,,,,,,,,,,,,,,,,,,,,,,,,,,,,,,,,,,,,,,,,,,,,,,,,,,,,,,,,1110.0910802,1111.5910139999999,1109.5841777000003,1111.5910139999999,1111.5910139999999,1111.5910139999999,0.006153799999992771,0.01314509999974689,85,reward,1,[0.4514500999998745],[0.45145389999970575],1112.0493301,1112.0493301,0.007218199999897479,0.007218199999897479,0.01870020000023942,0.053382500000225264,0.06034460000000763,0.10198320000017702,0.10895350000009785,1.0047884000000522,1115.5423343,1119.6115794,,,,,,,,,,,,,,,,,,,,,,,,,,,,,5,D,2023-12-07_08h18.35.410,gca_avoidance_task,2022.2.4,144.05983669385918,
positions.xlsx,stimuli.xlsx,stimuli/Social2.png,stimuli/Social1.png,stimuli/Nonsocial2.png,stimuli/Nonsocial1.png,,"(-0.7, -0.5)",cs_minus_s,,,,,0,0,0,0,,,,,,,,,0,2,2,5,,,,,,,,,,,,,,,,,,,,,,,,,,,,,,,,,,,,,,,,,,,,,,,,,,,,,,,,,,1120.1184398000003,1121.4170386000003,1119.6115794,1121.4170386000003,1121.4170386000003,1121.4170386000003,0.006867399999919144,0.013134100000115723,90,reward,1,[0.3471776999999747],[0.3471810999999434],1121.7711747,1121.7711747,0.006449400000292371,0.006449400000292371,0.018569600000319042,0.05321890000004714,0.06018050000011499,0.10182250000025306,0.10875430000032793,1.0045680000002903,1125.2640840000001,1128.8542219000003,,,,,,,,,,,,,,,,,,,,,,,,,,,,,5,D,2023-12-07_08h18.35.410,gca_avoidance_task,2022.2.4,144.05983669385918,
positions.xlsx,stimuli.xlsx,stimuli/Social2.png,stimuli/Social1.png,stimuli/Nonsocial2.png,stimuli/Nonsocial1.png,,"(0.7, 0.5)",cs_minus_ns,,,,,0,0,0,0,,,,,,,,,0,3,3,14,,,,,,,,,,,,,,,,,,,,,,,,,,,,,,,,,,,,,,,,,,,,,,,,,,,,,,,,,,1129.3611305000002,1131.3610773000003,1128.8542219000003,1131.3610773000003,1131.3610773000003,1131.3610773000003,0.007150399999773072,0.013321200000063982,95,reward,1,[0.4448548000000301],[0.4448584000001574],1131.8124466000002,1131.8124466000002,0.00792009999986476,0.00792009999986476,0.018376699999862467,0.053008800000043266,0.059976300000016636,0.1016301999998177,0.10856439999997747,1.0044122999997853,1135.3054175,1138.8400079,,,,,,,,,,,,,,,,,,,,,,,,,,,,,5,D,2023-12-07_08h18.35.410,gca_avoidance_task,2022.2.4,144.05983669385918,
positions.xlsx,stimuli.xlsx,stimuli/Social2.png,stimuli/Social1.png,stimuli/Nonsocial2.png,stimuli/Nonsocial1.png,,"(-0.7, 0.5)",cs_minus_ns,,,,,0,0,0,0,,,,,,,,,0,4,4,12,,,,,,,,,,,,,,,,,,,,,,,,,,,,,,,,,,,,,,,,,,,,,,,,,,,,,,,,,,1139.3468184,1141.2773193,1138.8400079,1141.2773193,1141.2773193,1141.2773193,0.006642400000146154,0.013304999999945721,100,reward,1,[0.46558009999989736],[0.46558360000017274],1141.7495569999999,1141.7495569999999,0.007595300000048155,0.007595300000048155,0.01836810000031619,0.05296550000002753,0.05993690000013885,0.10159040000007735,0.10861370000020543,1.0043706999999813,1145.2425048000002,1149.0409809999999,,,,,,,,,,,,,,,,,,,,,,,,,,,,,5,D,2023-12-07_08h18.35.410,gca_avoidance_task,2022.2.4,144.05983669385918,
positions.xlsx,stimuli.xlsx,stimuli/Social2.png,stimuli/Social1.png,stimuli/Nonsocial2.png,stimuli/Nonsocial1.png,,"(-0.7, 0.5)",cs_minus_s,,,,,0,0,0,0,,,,,,,,,0,5,5,4,,,,,,,,,,,,,,,,,,,,,,,,,,,,,,,,,,,,,,,,,,,,,,,,,,,,,,,,,,1149.547808,1151.1033224999999,1149.0409809999999,1151.1033224999999,1151.1033224999999,1151.1033224999999,0.00656650000018999,0.013301000000410568,105,reward,1,[0.31984860000011395],[0.32672900000034133],1151.4366166000002,1151.4366166000002,0.007143799999994371,0.007143799999994371,0.01835269999992306,0.05300149999993664,0.05997739999975238,0.10163099999999758,0.10861099999965518,1.0044017999998687,1154.9296241,1159.0822286,,,,,,,,,,,,,,,,,,,,,,,,,,,,,5,D,2023-12-07_08h18.35.410,gca_avoidance_task,2022.2.4,144.05983669385918,
positions.xlsx,stimuli.xlsx,stimuli/Social2.png,stimuli/Social1.png,stimuli/Nonsocial2.png,stimuli/Nonsocial1.png,,"(0.7, 0.5)",cs_plus_s,,,,,0,0,0,0,,,,,,,,,0,6,6,2,,,,,,,,,,,,,,,,,,,,,,,,,,,,,,,,,,,,,,,,,,,,,,,,,,,,,,,,,,1159.5891194000003,1161.3598410000002,1159.0822286,1161.3598410000002,1161.3598410000002,1161.3598410000002,0.006257000000005064,0.013305699999818899,105,shock,1,[0.32658509999964735],[0.32658889999993335],1161.6931721000003,1161.6931721000003,0.007440399999723013,0.007440399999723013,0.018328099999962433,0.05303890000004685,0.06004170000005615,0.10158719999981258,0.10858239999970465,1.0043695999997908,1165.1861608000002,1168.7763064000003,,,,,,,,,,,,,,,,,,,,,,,,,,,,,5,D,2023-12-07_08h18.35.410,gca_avoidance_task,2022.2.4,144.05983669385918,
positions.xlsx,stimuli.xlsx,stimuli/Social2.png,stimuli/Social1.png,stimuli/Nonsocial2.png,stimuli/Nonsocial1.png,,"(0.7, 0.5)",cs_plus_ns,,,,,0,0,0,0,,,,,,,,,0,7,7,10,,,,,,,,,,,,,,,,,,,,,,,,,,,,,,,,,,,,,,,,,,,,,,,,,,,,,,,,,,1169.2831957,1171.1719802,1168.7763064000003,1171.1719802,1171.1719802,1171.1719802,0.006532500000048458,0.013103600000249571,105,none,0,,,1176.1786958999999,1176.1786958999999,0.013480099999924278,0.013480099999924278,0.01985270000022865,0.05453680000027816,0.06151510000017879,0.10318689999985509,0.11012010000013106,1.0128413000002183,1179.6716727,1183.2409725,,,,,,,,,,,,,,,,,,,,,,,,,,,,,5,D,2023-12-07_08h18.35.410,gca_avoidance_task,2022.2.4,144.05983669385918,
positions.xlsx,stimuli.xlsx,stimuli/Social2.png,stimuli/Social1.png,stimuli/Nonsocial2.png,stimuli/Nonsocial1.png,,"(0.7, -0.5)",cs_plus_ns,,,,,0,0,0,0,,,,,,,,,0,8,8,11,,,,,,,,,,,,,,,,,,,,,,,,,,,,,,,,,,,,,,,,,,,,,,,,,,,,,,,,,,1183.7478770999999,1184.8727985000003,1183.2409725,1184.8727985000003,1184.8727985000003,1184.8727985000003,0.0063577999999324675,0.012958699999671808,105,none,0,,,1189.8796066000002,1189.8796066000002,0.013988199999857898,0.013988199999857898,0.019771399999626738,0.05442999999968379,0.06141889999980776,0.10302739999997357,0.10997489999999743,1.0127363999999943,1193.3725316000002,1197.629278,,,,,,,,,,,,,,,,,,,,,,,,,,,,,5,D,2023-12-07_08h18.35.410,gca_avoidance_task,2022.2.4,144.05983669385918,
positions.xlsx,stimuli.xlsx,stimuli/Social2.png,stimuli/Social1.png,stimuli/Nonsocial2.png,stimuli/Nonsocial1.png,,"(-0.7, -0.5)",cs_minus_ns,,,,,0,0,0,0,,,,,,,,,0,9,9,13,,,,,,,,,,,,,,,,,,,,,,,,,,,,,,,,,,,,,,,,,,,,,,,,,,,,,,,,,,1198.1361880000002,1199.4069337000003,1197.629278,1199.4069337000003,1199.4069337000003,1199.4069337000003,0.006394399999862799,0.01343849999966551,110,reward,1,[0.6046262999998362],[0.6046300999996674],1200.0180398,1200.0180398,0.0073065999999926134,0.0073065999999926134,0.01831960000026811,0.053087300000242976,0.05991900000026362,0.10156559999995807,0.10851460000003499,1.0042911000000458,1203.511005,1207.2053142000002,,,,,,,,,,,,,,,,,,,,,,,,,,,,,5,D,2023-12-07_08h18.35.410,gca_avoidance_task,2022.2.4,144.05983669385918,
positions.xlsx,stimuli.xlsx,stimuli/Social2.png,stimuli/Social1.png,stimuli/Nonsocial2.png,stimuli/Nonsocial1.png,,"(0.7, -0.5)",cs_minus_s,,,,,0,0,0,0,,,,,,,,,0,10,10,7,,,,,,,,,,,,,,,,,,,,,,,,,,,,,,,,,,,,,,,,,,,,,,,,,,,,,,,,,,1207.7121514000003,1208.9135487,1207.2053142000002,1208.9135487,1208.9135487,1208.9135487,0.005713399999876856,0.013238999999884982,115,reward,1,[0.5209473999998409],[0.5209509000001162],1209.4412582000002,1209.4412582000002,0.007292499999948632,0.007292499999948632,0.018415300000015122,0.05309429999988424,0.06006840000009106,0.10173990000021149,0.108654099999967,1.004437500000222,1212.9342205,1217.1979161000002,,,,,,,,,,,,,,,,,,,,,,,,,,,,,5,D,2023-12-07_08h18.35.410,gca_avoidance_task,2022.2.4,144.05983669385918,
positions.xlsx,stimuli.xlsx,stimuli/Social2.png,stimuli/Social1.png,stimuli/Nonsocial2.png,stimuli/Nonsocial1.png,,"(-0.7, 0.5)",cs_plus_ns,,,,,0,0,0,0,,,,,,,,,0,11,11,8,,,,,,,,,,,,,,,,,,,,,,,,,,,,,,,,,,,,,,,,,,,,,,,,,,,,,,,,,,1217.7048156000003,1219.3367721000002,1217.1979161000002,1219.3367721000002,1219.3367721000002,1219.3367721000002,0.008660199999667384,0.018832199999906152,115,shock,1,[0.24218669999982012],[0.2421903999997994],1219.5797496000002,1219.5797496000002,0.009574899999734043,0.009574899999734043,0.01766009999982998,0.05235790000006091,0.059319699999832665,0.10093009999991409,0.10792320000018663,1.0037133999999241,1223.0727060000002,1226.6628552,,,,,,,,,,,,,,,,,,,,,,,,,,,,,5,D,2023-12-07_08h18.35.410,gca_avoidance_task,2022.2.4,144.05983669385918,
positions.xlsx,stimuli.xlsx,stimuli/Social2.png,stimuli/Social1.png,stimuli/Nonsocial2.png,stimuli/Nonsocial1.png,,"(-0.7, 0.5)",cs_plus_s,,,,,0,0,0,0,,,,,,,,,0,12,12,0,,,,,,,,,,,,,,,,,,,,,,,,,,,,,,,,,,,,,,,,,,,,,,,,,,,,,,,,,,1227.1697403,1228.7460661000002,1226.6628552,1228.7460661000002,1228.7460661000002,1228.7460661000002,0.006283100000018749,0.013375399999858928,115,none,0,,,1233.7528234,1233.7528234,0.013553499999943597,0.013553499999943597,0.020181500000035157,0.05484019999994416,0.06178420000014739,0.10343250000005355,0.11040769999999611,1.0131375999999364,1237.2457531000002,1241.1275456,,,,,,,,,,,,,,,,,,,,,,,,,,,,,5,D,2023-12-07_08h18.35.410,gca_avoidance_task,2022.2.4,144.05983669385918,
positions.xlsx,stimuli.xlsx,stimuli/Social2.png,stimuli/Social1.png,stimuli/Nonsocial2.png,stimuli/Nonsocial1.png,,"(0.7, -0.5)",cs_plus_s,,,,,0,0,0,0,,,,,,,,,0,13,13,3,,,,,,,,,,,,,,,,,,,,,,,,,,,,,,,,,,,,,,,,,,,,,,,,,,,,,,,,,,1241.6344348999999,1242.8913156,1241.1275456,1242.8913156,1242.8913156,1242.8913156,0.005706999999802065,0.013496000000031927,115,shock,1,[0.44483679999984815],[0.4448403999999755],1243.3357630000003,1243.3357630000003,0.007138100000247505,0.007138100000247505,0.011848500000269269,0.05348230000026888,0.06045280000034836,0.10218320000012682,0.10906740000018544,1.0047902000001159,1246.8356587,1250.5924301000002,,,,,,,,,,,,,,,,,,,,,,,,,,,,,5,D,2023-12-07_08h18.35.410,gca_avoidance_task,2022.2.4,144.05983669385918,
positions.xlsx,stimuli.xlsx,stimuli/Social2.png,stimuli/Social1.png,stimuli/Nonsocial2.png,stimuli/Nonsocial1.png,,"(-0.7, -0.5)",cs_plus_ns,,,,,0,0,0,0,,,,,,,,,0,14,14,9,,,,,,,,,,,,,,,,,,,,,,,,,,,,,,,,,,,,,,,,,,,,,,,,,,,,,,,,,,1251.0993013,1252.8908908,1250.5924301000002,1252.8908908,1252.8908908,1252.8908908,0.006843300000127783,0.013184200000068813,115,none,0,,,1257.8976711000003,1257.8976711000003,0.013944400000127644,0.013944400000127644,0.019916200000352546,0.05457390000037776,0.06161969999993744,0.10323430000016742,0.11016659999995682,1.0128997000001618,1261.3906542000002,1265.3974081,,,,,,,,,,,,,,,,,,,,,,,,,,,,,5,D,2023-12-07_08h18.35.410,gca_avoidance_task,2022.2.4,144.05983669385918,
positions.xlsx,stimuli.xlsx,stimuli/Social2.png,stimuli/Social1.png,stimuli/Nonsocial2.png,stimuli/Nonsocial1.png,,"(0.7, -0.5)",cs_minus_ns,,,,,0,0,0,0,,,,,,,,,0,15,15,15,,,,,,,,,,,,,,,,,,,,,,,,,,,,,,,,,,,,,,,,,,,,,,,,,,,,,,,,,,1265.9042875000002,1267.8555979,1265.3974081,1267.8555979,1267.8555979,1267.8555979,0.006632000000081462,0.013119400000050518,120,reward,1,[0.48669340000014927],[0.4866973000002872],1268.3486431,1268.3486431,0.007579199999781849,0.007579199999781849,0.018265400000018417,0.05294419999972888,0.05986979999988762,0.10151910000013231,0.10849430000007487,1.0042939999998453,1271.8416079,1276.0289484000002,,,,,,,,,,,,,,,,,,,,,,,,,,,,,5,D,2023-12-07_08h18.35.410,gca_avoidance_task,2022.2.4,144.05983669385918,
positions.xlsx,stimuli.xlsx,stimuli/Social2.png,stimuli/Social1.png,stimuli/Nonsocial2.png,stimuli/Nonsocial1.png,,"(-0.7, -0.5)",cs_plus_s,,,,,0,0,0,0,,,,,,,,,1,0,16,1,,,,,,,,,,,,,,,,,,,,,,,,,,,,,,,,,,,,,,,,,,,,,,,,,,,,,,,,,,1276.5358602,1278.320513,1276.0289484000002,1278.320513,1278.320513,1278.320513,0.005998200000249199,0.013472000000092521,120,none,0,,,1283.3272249,1283.3272249,0.013705700000173238,0.013705700000173238,0.02022690000012517,0.054904200000237324,0.061861600000156614,0.10354600000027858,0.1104632000001402,1.0131741000000147,1286.8201833,1290.99364,,,,,,,,,,,,,,,,,,,,,,,,,,,,,5,D,2023-12-07_08h18.35.410,gca_avoidance_task,2022.2.4,144.05983669385918,
positions.xlsx,stimuli.xlsx,stimuli/Social2.png,stimuli/Social1.png,stimuli/Nonsocial2.png,stimuli/Nonsocial1.png,,"(0.7, 0.5)",cs_minus_s,,,,,0,0,0,0,,,,,,,,,1,1,17,6,,,,,,,,,,,,,,,,,,,,,,,,,,,,,,,,,,,,,,,,,,,,,,,,,,,,,,,,,,1291.5005349,1293.4587376000002,1290.99364,1293.4587376000002,1293.4587376000002,1293.4587376000002,0.005826600000091275,0.013390999999955966,125,reward,1,[0.43793159999995623],[0.4379352999999355],1293.9031776,1293.9031776,0.007061000000248896,0.007061000000248896,0.01844149999988076,0.05311260000007678,0.060054999999920256,0.10176159999991796,0.10867659999985335,1.0044814000002589,1297.3961115,1301.618217,,,,,,,,,,,,,,,,,,,,,,,,,,,,,5,D,2023-12-07_08h18.35.410,gca_avoidance_task,2022.2.4,144.05983669385918,
positions.xlsx,stimuli.xlsx,stimuli/Social2.png,stimuli/Social1.png,stimuli/Nonsocial2.png,stimuli/Nonsocial1.png,,"(0.7, -0.5)",cs_minus_ns,,,,,0,0,0,0,,,,,,,,,1,2,18,15,,,,,,,,,,,,,,,,,,,,,,,,,,,,,,,,,,,,,,,,,,,,,,,,,,,,,,,,,,1302.1250861,1303.7708810000001,1301.618217,1303.7708810000001,1303.7708810000001,1303.7708810000001,0.0063463000001320324,0.013224100000115868,130,reward,1,[0.3056406999999126],[0.3056445000001986],1304.0833998,1304.0833998,0.007381000000350468,0.007381000000350468,0.018752500000118744,0.05336110000007466,0.0603438000002825,0.1019879000000401,0.1089163000001463,1.0047295000003942,1307.5762981,1311.4511044000003,,,,,,,,,,,,,,,,,,,,,,,,,,,,,5,D,2023-12-07_08h18.35.410,gca_avoidance_task,2022.2.4,144.05983669385918,
positions.xlsx,stimuli.xlsx,stimuli/Social2.png,stimuli/Social1.png,stimuli/Nonsocial2.png,stimuli/Nonsocial1.png,,"(0.7, -0.5)",cs_plus_s,,,,,0,0,0,0,,,,,,,,,1,3,19,3,,,,,,,,,,,,,,,,,,,,,,,,,,,,,,,,,,,,,,,,,,,,,,,,,,,,,,,,,,1311.9580149,1313.2705194000002,1311.4511044000003,1313.2705194000002,1313.2705194000002,1313.2705194000002,0.006271199999901,0.013235899999926914,130,shock,1,[0.26410759999998845],[0.26411129999996774],1313.5413025999999,1313.5413025999999,0.007519399999637244,0.007519399999637244,0.018336399999952846,0.052981399999680434,0.05996719999984634,0.10160159999986718,0.10853839999981574,1.0043082999995931,1317.0342142000002,1320.7980449,,,,,,,,,,,,,,,,,,,,,,,,,,,,,5,D,2023-12-07_08h18.35.410,gca_avoidance_task,2022.2.4,144.05983669385918,
positions.xlsx,stimuli.xlsx,stimuli/Social2.png,stimuli/Social1.png,stimuli/Nonsocial2.png,stimuli/Nonsocial1.png,,"(0.7, 0.5)",cs_plus_ns,,,,,0,0,0,0,,,,,,,,,1,4,20,10,,,,,,,,,,,,,,,,,,,,,,,,,,,,,,,,,,,,,,,,,,,,,,,,,,,,,,,,,,1321.3048846,1322.4159474,1320.7980449,1322.4159474,1322.4159474,1322.4159474,0.006918399999904068,0.013110899999901449,130,none,0,,,1327.4226995000001,1327.4226995000001,0.014007099999616912,0.014007099999616912,0.01984179999999469,0.05454169999984515,0.061484699999709846,0.10315929999978835,0.11011689999986629,1.0127958999996736,1330.9156774,1334.4849656,,,,,,,,,,,,,,,,,,,,,,,,,,,,,5,D,2023-12-07_08h18.35.410,gca_avoidance_task,2022.2.4,144.05983669385918,
positions.xlsx,stimuli.xlsx,stimuli/Social2.png,stimuli/Social1.png,stimuli/Nonsocial2.png,stimuli/Nonsocial1.png,,"(0.7, 0.5)",cs_minus_ns,,,,,0,0,0,0,,,,,,,,,1,5,21,14,,,,,,,,,,,,,,,,,,,,,,,,,,,,,,,,,,,,,,,,,,,,,,,,,,,,,,,,,,1334.9919016000001,1336.3528797000001,1334.4849656,1336.3528797000001,1336.3528797000001,1336.3528797000001,0.006794699999773002,0.012938500000018394,135,reward,1,[0.6527272999996967],[0.6597861999998713],1337.0195424,1337.0195424,0.008489800000006653,0.008489800000006653,0.01798689999986891,0.052711099999669386,0.059594599999854836,0.10124139999970794,0.10821089999990363,1.004003399999874,1340.5125006,1344.6998099,,,,,,,,,,,,,,,,,,,,,,,,,,,,,5,D,2023-12-07_08h18.35.410,gca_avoidance_task,2022.2.4,144.05983669385918,
positions.xlsx,stimuli.xlsx,stimuli/Social2.png,stimuli/Social1.png,stimuli/Nonsocial2.png,stimuli/Nonsocial1.png,,"(0.7, 0.5)",cs_plus_s,,,,,0,0,0,0,,,,,,,,,1,6,22,2,,,,,,,,,,,,,,,,,,,,,,,,,,,,,,,,,,,,,,,,,,,,,,,,,,,,,,,,,,1345.2066926,1347.0191314,1344.6998099,1347.0191314,1347.0191314,1347.0191314,0.006050699999832432,0.013376500000049418,135,shock,1,[0.3476590000000215],[0.34766270000000077],1347.3733088000001,1347.3733088000001,0.007456899999851885,0.007456899999851885,0.01827469999989262,0.05296839999982694,0.059897000000091793,0.1015465000000404,0.10846270000001823,1.0043038999997407,1350.8662095000002,1354.7549709000002,,,,,,,,,,,,,,,,,,,,,,,,,,,,,5,D,2023-12-07_08h18.35.410,gca_avoidance_task,2022.2.4,144.05983669385918,
positions.xlsx,stimuli.xlsx,stimuli/Social2.png,stimuli/Social1.png,stimuli/Nonsocial2.png,stimuli/Nonsocial1.png,,"(-0.7, -0.5)",cs_plus_ns,,,,,0,0,0,0,,,,,,,,,1,7,23,9,,,,,,,,,,,,,,,,,,,,,,,,,,,,,,,,,,,,,,,,,,,,,,,,,,,,,,,,,,1355.2618697,1357.2270528000001,1354.7549709000002,1357.2270528000001,1357.2270528000001,1357.2270528000001,0.006722500000250875,0.013215200000104232,135,none,0,,,1362.2338226,1362.2338226,0.014176399999996647,0.014176399999996647,0.020032800000080897,0.05469200000015917,0.06162089999997988,0.10323410000000877,0.11022860000002765,1.0129640000000109,1365.7267819,1370.0391137,,,,,,,,,,,,,,,,,,,,,,,,,,,,,5,D,2023-12-07_08h18.35.410,gca_avoidance_task,2022.2.4,144.05983669385918,
positions.xlsx,stimuli.xlsx,stimuli/Social2.png,stimuli/Social1.png,stimuli/Nonsocial2.png,stimuli/Nonsocial1.png,,"(-0.7, 0.5)",cs_minus_s,,,,,0,0,0,0,,,,,,,,,1,8,24,4,,,,,,,,,,,,,,,,,,,,,,,,,,,,,,,,,,,,,,,,,,,,,,,,,,,,,,,,,,1370.5459836000002,1371.893151,1370.0391137,1371.893151,1371.893151,1371.893151,0.006205399999998917,0.013355199999750766,140,reward,1,[0.292048799999975],[0.2920526999996582],1372.1917522,1372.1917522,0.0077419999997800915,0.0077419999997800915,0.018328499999825,0.05304930000011154,0.06000210000001971,0.10161879999986922,0.1085720000000947,1.004389700000047,1375.6846679000002,1379.7470053,,,,,,,,,,,,,,,,,,,,,,,,,,,,,5,D,2023-12-07_08h18.35.410,gca_avoidance_task,2022.2.4,144.05983669385918,
positions.xlsx,stimuli.xlsx,stimuli/Social2.png,stimuli/Social1.png,stimuli/Nonsocial2.png,stimuli/Nonsocial1.png,,"(0.7, -0.5)",cs_minus_s,,,,,0,0,0,0,,,,,,,,,1,9,25,7,,,,,,,,,,,,,,,,,,,,,,,,,,,,,,,,,,,,,,,,,,,,,,,,,,,,,,,,,,1380.2539320000003,1382.0108409000002,1379.7470053,1382.0108409000002,1382.0108409000002,1382.0108409000002,0.005783400000382244,0.013408300000264717,145,reward,1,[0.20182030000023587],[0.20182410000006712],1382.219163,1382.219163,0.006797500000175205,0.006797500000175205,0.018406799999866053,0.05307249999987107,0.06000780000022132,0.10161609999977372,0.1085744000001796,1.0043749000001299,1385.7120857000002,1389.6008253000002,,,,,,,,,,,,,,,,,,,,,,,,,,,,,5,D,2023-12-07_08h18.35.410,gca_avoidance_task,2022.2.4,144.05983669385918,
positions.xlsx,stimuli.xlsx,stimuli/Social2.png,stimuli/Social1.png,stimuli/Nonsocial2.png,stimuli/Nonsocial1.png,,"(-0.7, -0.5)",cs_minus_s,,,,,0,0,0,0,,,,,,,,,1,10,26,5,,,,,,,,,,,,,,,,,,,,,,,,,,,,,,,,,,,,,,,,,,,,,,,,,,,,,,,,,,1390.1076924000001,1391.4687314,1389.6008253000002,1391.4687314,1391.4687314,1391.4687314,0.006603600000289589,0.013190399999984947,150,reward,1,[0.4447392000001855],[0.44474300000001676],1391.9201394,1391.9201394,0.006727999999839085,0.006727999999839085,0.018499299999803043,0.05319980000012947,0.06019400000013775,0.10179599999992206,0.10875669999995807,1.0044997999998486,1395.413049,1399.1767961000003,,,,,,,,,,,,,,,,,,,,,,,,,,,,,5,D,2023-12-07_08h18.35.410,gca_avoidance_task,2022.2.4,144.05983669385918,
positions.xlsx,stimuli.xlsx,stimuli/Social2.png,stimuli/Social1.png,stimuli/Nonsocial2.png,stimuli/Nonsocial1.png,,"(-0.7, 0.5)",cs_plus_s,,,,,0,0,0,0,,,,,,,,,1,11,27,0,,,,,,,,,,,,,,,,,,,,,,,,,,,,,,,,,,,,,,,,,,,,,,,,,,,,,,,,,,1399.6836996,1401.1003200000002,1399.1767961000003,1401.1003200000002,1401.1003200000002,1401.1003200000002,0.006147800000235293,0.013100800000302115,150,none,0,,,1406.107083,1406.107083,0.013298200000008364,0.013298200000008364,0.0198685000000296,0.05452130000003308,0.0614730000002055,0.10307800000009593,0.11006429999997636,1.0128297000001112,1409.5999895000002,1413.8359922000002,,,,,,,,,,,,,,,,,,,,,,,,,,,,,5,D,2023-12-07_08h18.35.410,gca_avoidance_task,2022.2.4,144.05983669385918,
positions.xlsx,stimuli.xlsx,stimuli/Social2.png,stimuli/Social1.png,stimuli/Nonsocial2.png,stimuli/Nonsocial1.png,,"(0.7, -0.5)",cs_plus_ns,,,,,0,0,0,0,,,,,,,,,1,12,28,11,,,,,,,,,,,,,,,,,,,,,,,,,,,,,,,,,,,,,,,,,,,,,,,,,,,,,,,,,,1414.3428617000002,1416.2524920000003,1413.8359922000002,1416.2524920000003,1416.2524920000003,1416.2524920000003,0.0067155000001548615,0.013023800000155461,150,none,0,,,1421.2592619,1421.2592619,0.014400300000033894,0.014400300000033894,0.01981240000031903,0.05449250000037864,0.06146070000022519,0.10311500000034357,0.1100311000000147,1.0127443999999741,1424.7522318,1429.1478871000002,,,,,,,,,,,,,,,,,,,,,,,,,,,,,5,D,2023-12-07_08h18.35.410,gca_avoidance_task,2022.2.4,144.05983669385918,
positions.xlsx,stimuli.xlsx,stimuli/Social2.png,stimuli/Social1.png,stimuli/Nonsocial2.png,stimuli/Nonsocial1.png,,"(-0.7, -0.5)",cs_minus_ns,,,,,0,0,0,0,,,,,,,,,1,13,29,13,,,,,,,,,,,,,,,,,,,,,,,,,,,,,,,,,,,,,,,,,,,,,,,,,,,,,,,,,,1429.6547745,1431.3144359,1429.1478871000002,1431.3144359,1431.3144359,1431.3144359,0.006671799999821815,0.013331899999684538,155,reward,1,[0.6253220999997211],[0.6253259000000071],1431.9463691000003,1431.9463691000003,0.0077713999999105,0.0077713999999105,0.018402899999728106,0.05308560000003126,0.05999099999962709,0.1016700000000128,0.10857379999970362,1.0043888999998671,1435.4392498,1439.6960486,,,,,,,,,,,,,,,,,,,,,,,,,,,,,5,D,2023-12-07_08h18.35.410,gca_avoidance_task,2022.2.4,144.05983669385918,
positions.xlsx,stimuli.xlsx,stimuli/Social2.png,stimuli/Social1.png,stimuli/Nonsocial2.png,stimuli/Nonsocial1.png,,"(-0.7, 0.5)",cs_plus_ns,,,,,0,0,0,0,,,,,,,,,1,14,30,8,,,,,,,,,,,,,,,,,,,,,,,,,,,,,,,,,,,,,,,,,,,,,,,,,,,,,,,,,,1440.2029556,1441.3626312,1439.6960486,1441.3626312,1441.3626312,1441.3626312,0.006622699999752513,0.013551900000038586,155,shock,1,[0.2503603000000112],[0.2503637999998318],1441.6195796,1441.6195796,0.007541200000105164,0.007541200000105164,0.018641000000116037,0.053306700000121054,0.06030559999999241,0.10193000000026586,0.10889050000014322,1.0046409999999923,1445.1125357000003,1448.8554203,,,,,,,,,,,,,,,,,,,,,,,,,,,,,5,D,2023-12-07_08h18.35.410,gca_avoidance_task,2022.2.4,144.05983669385918,
positions.xlsx,stimuli.xlsx,stimuli/Social2.png,stimuli/Social1.png,stimuli/Nonsocial2.png,stimuli/Nonsocial1.png,,"(-0.7, 0.5)",cs_minus_ns,,,,,0,0,0,0,,,,,,,,,1,15,31,12,,,,,,,,,,,,,,,,,,,,,,,,,,,,,,,,,,,,,,,,,,,,,,,,,,,,,,,,,,1449.3623081000003,1451.3344777,1448.8554203,1451.3344777,1451.3344777,1451.3344777,0.006690200000321056,0.013505900000382098,160,reward,1,[0.6811141000002863],[0.6811178000002656],1452.0219404000002,1452.0219404000002,0.008043799999995827,0.008043799999995827,0.01798899999994319,0.052663899999970454,0.05960469999990892,0.10127190000002884,0.10820919999969192,1.003987799999777,1455.5148829000002,1459.2369996,,,,,,,,,,,,,,,,,,,,,,,,,,,,,5,D,2023-12-07_08h18.35.410,gca_avoidance_task,2022.2.4,144.05983669385918,
positions.xlsx,stimuli.xlsx,stimuli/Social2.png,stimuli/Social1.png,stimuli/Nonsocial2.png,stimuli/Nonsocial1.png,,"(0.7, -0.5)",cs_plus_ns,,,,,0,0,0,0,,,,,,,,,2,0,32,11,,,,,,,,,,,,,,,,,,,,,,,,,,,,,,,,,,,,,,,,,,,,,,,,,,,,,,,,,,1459.7438480000003,1460.9035327,1459.2369996,1460.9035327,1460.9035327,1460.9035327,0.006537399999615445,0.013079699999707373,160,none,0,,,1465.9102814,1465.9102814,0.014359099999637692,0.014359099999637692,0.019832799999676354,0.054516400000011345,0.06144079999967289,0.10309349999988626,0.11009089999970456,1.0127543999997215,1469.4031865,1473.41,,,,,,,,,,,,,,,,,,,,,,,,,,,,,5,D,2023-12-07_08h18.35.410,gca_avoidance_task,2022.2.4,144.05983669385918,
positions.xlsx,stimuli.xlsx,stimuli/Social2.png,stimuli/Social1.png,stimuli/Nonsocial2.png,stimuli/Nonsocial1.png,,"(0.7, 0.5)",cs_plus_ns,,,,,0,0,0,0,,,,,,,,,2,1,33,10,,,,,,,,,,,,,,,,,,,,,,,,,,,,,,,,,,,,,,,,,,,,,,,,,,,,,,,,,,1473.9168677999999,1475.2501697,1473.41,1475.2501697,1475.2501697,1475.2501697,0.006547500000124273,0.013418500000170752,160,none,0,,,1480.2569267000001,1480.2569267000001,0.014368500000273343,0.014368500000273343,0.020193700000163517,0.05484180000030392,0.06181530000003477,0.10346540000000459,0.11037990000022546,1.013166100000035,1483.7498911999999,1487.4233656,,,,,,,,,,,,,,,,,,,,,,,,,,,,,5,D,2023-12-07_08h18.35.410,gca_avoidance_task,2022.2.4,144.05983669385918,
positions.xlsx,stimuli.xlsx,stimuli/Social2.png,stimuli/Social1.png,stimuli/Nonsocial2.png,stimuli/Nonsocial1.png,,"(-0.7, 0.5)",cs_plus_s,,,,,0,0,0,0,,,,,,,,,2,2,34,0,,,,,,,,,,,,,,,,,,,,,,,,,,,,,,,,,,,,,,,,,,,,,,,,,,,,,,,,,,1487.9302138,1489.2774017,1487.4233656,1489.2774017,1489.2774017,1489.2774017,0.0058574000004227855,0.013113500000144995,160,none,0,,,1494.2841132,1494.2841132,0.013478600000325969,0.013478600000325969,0.01985980000017662,0.05452410000043528,0.061478100000385894,0.10316280000006373,0.11012220000020534,1.0128600000002734,1497.7770835,1501.6241671,,,,,,,,,,,,,,,,,,,,,,,,,,,,,5,D,2023-12-07_08h18.35.410,gca_avoidance_task,2022.2.4,144.05983669385918,
positions.xlsx,stimuli.xlsx,stimuli/Social2.png,stimuli/Social1.png,stimuli/Nonsocial2.png,stimuli/Nonsocial1.png,,"(0.7, 0.5)",cs_plus_s,,,,,0,0,0,0,,,,,,,,,2,3,35,2,,,,,,,,,,,,,,,,,,,,,,,,,,,,,,,,,,,,,,,,,,,,,,,,,,,,,,,,,,1502.1310811,1503.2559862,1501.6241671,1503.2559862,1503.2559862,1503.2559862,0.006336599999940518,0.01337920000014492,160,none,0,,,1508.2628004,1508.2628004,0.014788299999963783,0.014788299999963783,0.020185299999866402,0.05479490000016085,0.061759600000186765,0.10344350000013947,0.11037600000008752,1.0131024000002071,1511.7556946000002,1515.2833328,,,,,,,,,,,,,,,,,,,,,,,,,,,,,5,D,2023-12-07_08h18.35.410,gca_avoidance_task,2022.2.4,144.05983669385918,
positions.xlsx,stimuli.xlsx,stimuli/Social2.png,stimuli/Social1.png,stimuli/Nonsocial2.png,stimuli/Nonsocial1.png,,"(0.7, -0.5)",cs_minus_s,,,,,0,0,0,0,,,,,,,,,2,4,36,7,,,,,,,,,,,,,,,,,,,,,,,,,,,,,,,,,,,,,,,,,,,,,,,,,,,,,,,,,,1515.7902297000003,1517.186023,1515.2833328,1517.186023,1517.186023,1517.186023,0.006681100000150764,0.013244400000075984,165,reward,1,[0.47952140000006693],[0.4795252000003529],1517.6721013,1517.6721013,0.00706369999988965,0.00706369999988965,0.018522399999710615,0.05316099999981816,0.06009970000013709,0.10177739999971891,0.10873689999971248,1.0045458999998118,1521.1650885000001,1524.8246495,,,,,,,,,,,,,,,,,,,,,,,,,,,,,5,D,2023-12-07_08h18.35.410,gca_avoidance_task,2022.2.4,144.05983669385918,
positions.xlsx,stimuli.xlsx,stimuli/Social2.png,stimuli/Social1.png,stimuli/Nonsocial2.png,stimuli/Nonsocial1.png,,"(-0.7, -0.5)",cs_plus_s,,,,,0,0,0,0,,,,,,,,,2,5,37,1,,,,,,,,,,,,,,,,,,,,,,,,,,,,,,,,,,,,,,,,,,,,,,,,,,,,,,,,,,1525.3315124000003,1526.6995294,1524.8246495,1526.6995294,1526.6995294,1526.6995294,0.006002500000249711,0.01318330000003698,165,none,0,,,1531.7062787000002,1531.7062787000002,0.013433800000257179,0.013433800000257179,0.01998860000003333,0.0545894000001681,0.06154390000028798,0.10325960000000123,0.11018620000004375,1.0129028999999719,1535.1991901,1538.9560334999999,,,,,,,,,,,,,,,,,,,,,,,,,,,,,5,D,2023-12-07_08h18.35.410,gca_avoidance_task,2022.2.4,144.05983669385918,
positions.xlsx,stimuli.xlsx,stimuli/Social2.png,stimuli/Social1.png,stimuli/Nonsocial2.png,stimuli/Nonsocial1.png,,"(0.7, -0.5)",cs_minus_ns,,,,,0,0,0,0,,,,,,,,,2,6,38,15,,,,,,,,,,,,,,,,,,,,,,,,,,,,,,,,,,,,,,,,,,,,,,,,,,,,,,,,,,1539.4629012000003,1540.6086611000003,1538.9560334999999,1540.6086611000003,1540.6086611000003,1540.6086611000003,0.006931299999905605,0.013023399999838148,170,reward,1,[0.6460340999997243],[0.6460379000000103],1541.2614730000003,1541.2614730000003,0.008577800000239222,0.008577800000239222,0.017902000000049156,0.05253560000028301,0.059502900000097725,0.10115680000035354,0.10810960000026171,1.0038723000002392,1544.7543822999999,1549.0250250000001,,,,,,,,,,,,,,,,,,,,,,,,,,,,,5,D,2023-12-07_08h18.35.410,gca_avoidance_task,2022.2.4,144.05983669385918,
positions.xlsx,stimuli.xlsx,stimuli/Social2.png,stimuli/Social1.png,stimuli/Nonsocial2.png,stimuli/Nonsocial1.png,,"(-0.7, 0.5)",cs_plus_ns,,,,,0,0,0,0,,,,,,,,,2,7,39,8,,,,,,,,,,,,,,,,,,,,,,,,,,,,,,,,,,,,,,,,,,,,,,,,,,,,,,,,,,1549.5319634,1550.9416239,1549.0250250000001,1550.9416239,1550.9416239,1550.9416239,0.007250200000271434,0.01341180000008535,170,none,0,,,1555.9483604,1555.9483604,0.014372500000263244,0.014372500000263244,0.02018210000005638,0.05485029999999824,0.0618400000003021,0.10345219999999244,0.11039960000016436,1.0131280000000515,1559.4413302,1562.9481104,,,,,,,,,,,,,,,,,,,,,,,,,,,,,5,D,2023-12-07_08h18.35.410,gca_avoidance_task,2022.2.4,144.05983669385918,
positions.xlsx,stimuli.xlsx,stimuli/Social2.png,stimuli/Social1.png,stimuli/Nonsocial2.png,stimuli/Nonsocial1.png,,"(-0.7, -0.5)",cs_minus_ns,,,,,0,0,0,0,,,,,,,,,2,8,40,13,,,,,,,,,,,,,,,,,,,,,,,,,,,,,,,,,,,,,,,,,,,,,,,,,,,,,,,,,,1563.4550136999999,1564.9410702000002,1562.9481104,1564.9410702000002,1564.9410702000002,1564.9410702000002,0.006465400000251975,0.013047899999946821,175,reward,1,[0.49310760000025766],[0.49311149999994086],1565.4410728999999,1565.4410728999999,0.007905399999799556,0.007905399999799556,0.018308299999716837,0.052978499999881024,0.059953999999834195,0.10161509999988994,0.10851899999988746,1.004342799999904,1568.9339660000003,1573.1213497,,,,,,,,,,,,,,,,,,,,,,,,,,,,,5,D,2023-12-07_08h18.35.410,gca_avoidance_task,2022.2.4,144.05983669385918,
positions.xlsx,stimuli.xlsx,stimuli/Social2.png,stimuli/Social1.png,stimuli/Nonsocial2.png,stimuli/Nonsocial1.png,,"(0.7, 0.5)",cs_minus_s,,,,,0,0,0,0,,,,,,,,,2,9,41,6,,,,,,,,,,,,,,,,,,,,,,,,,,,,,,,,,,,,,,,,,,,,,,,,,,,,,,,,,,1573.6282449000003,1574.9128889,1573.1213497,1574.9128889,1574.9128889,1574.9128889,0.005898399999750836,0.013172599999961676,180,reward,1,[0.4376364999998259],[0.4376403000001119],1575.3573246000003,1575.3573246000003,0.007153600000037841,0.007153600000037841,0.018554799999947136,0.05327140000008512,0.06015740000020742,0.10185260000025664,0.108769299999949,1.0045445000000655,1578.8502705000003,1583.1348436,,,,,,,,,,,,,,,,,,,,,,,,,,,,,5,D,2023-12-07_08h18.35.410,gca_avoidance_task,2022.2.4,144.05983669385918,
positions.xlsx,stimuli.xlsx,stimuli/Social2.png,stimuli/Social1.png,stimuli/Nonsocial2.png,stimuli/Nonsocial1.png,,"(-0.7, -0.5)",cs_minus_s,,,,,0,0,0,0,,,,,,,,,2,10,42,5,,,,,,,,,,,,,,,,,,,,,,,,,,,,,,,,,,,,,,,,,,,,,,,,,,,,,,,,,,1583.6417189000001,1585.0791701,1583.1348436,1585.0791701,1585.0791701,1585.0791701,0.006079499999941618,0.012959099999989121,185,reward,1,[0.47904830000015863],[0.4790520999999899],1585.5652996000001,1585.5652996000001,0.0069538000002467015,0.0069538000002467015,0.018477399999937916,0.05311810000011974,0.06007150000004913,0.10173190000023169,0.10869589999992968,1.0044771000002584,1589.0581832999999,1593.0094964000002,,,,,,,,,,,,,,,,,,,,,,,,,,,,,5,D,2023-12-07_08h18.35.410,gca_avoidance_task,2022.2.4,144.05983669385918,
positions.xlsx,stimuli.xlsx,stimuli/Social2.png,stimuli/Social1.png,stimuli/Nonsocial2.png,stimuli/Nonsocial1.png,,"(-0.7, 0.5)",cs_minus_ns,,,,,0,0,0,0,,,,,,,,,2,11,43,12,,,,,,,,,,,,,,,,,,,,,,,,,,,,,,,,,,,,,,,,,,,,,,,,,,,,,,,,,,1593.5163465000003,1595.0996125,1593.0094964000002,1595.0996125,1595.0996125,1595.0996125,0.006518400000004476,0.013039999999818974,190,reward,1,[0.638753700000052],[0.6387573000001794],1595.7454260000002,1595.7454260000002,0.00755059999983132,0.00755059999983132,0.01865749999979016,0.05331889999979467,0.060277399999904446,0.10192000000006374,0.10888119999981427,1.0047249999997803,1599.2383516000002,1603.4048421,,,,,,,,,,,,,,,,,,,,,,,,,,,,,5,D,2023-12-07_08h18.35.410,gca_avoidance_task,2022.2.4,144.05983669385918,
positions.xlsx,stimuli.xlsx,stimuli/Social2.png,stimuli/Social1.png,stimuli/Nonsocial2.png,stimuli/Nonsocial1.png,,"(-0.7, 0.5)",cs_minus_s,,,,,0,0,0,0,,,,,,,,,2,12,44,4,,,,,,,,,,,,,,,,,,,,,,,,,,,,,,,,,,,,,,,,,,,,,,,,,,,,,,,,,,1603.9117646000002,1605.8839020000003,1603.4048421,1605.8839020000003,1605.8839020000003,1605.8839020000003,0.006339999999909196,0.013537899999846559,195,reward,1,[0.5285626999998385],[0.5285660999998072],1606.4186285000003,1606.4186285000003,0.006717400000070484,0.006717400000070484,0.0187671999997292,0.05344859999968321,0.06041299999969851,0.10205199999973047,0.10904129999971701,1.0047503999999208,1609.9115963000002,1613.6544439000002,,,,,,,,,,,,,,,,,,,,,,,,,,,,,5,D,2023-12-07_08h18.35.410,gca_avoidance_task,2022.2.4,144.05983669385918,
positions.xlsx,stimuli.xlsx,stimuli/Social2.png,stimuli/Social1.png,stimuli/Nonsocial2.png,stimuli/Nonsocial1.png,,"(0.7, 0.5)",cs_minus_ns,,,,,0,0,0,0,,,,,,,,,2,13,45,14,,,,,,,,,,,,,,,,,,,,,,,,,,,,,,,,,,,,,,,,,,,,,,,,,,,,,,,,,,1614.1613724000001,1615.2655058000003,1613.6544439000002,1615.2655058000003,1615.2655058000003,1615.2655058000003,0.006555000000389555,0.013019900000017515,200,reward,1,[0.472237700000278],[0.4722415000001092],1615.7446243000002,1615.7446243000002,0.007661999999982072,0.007661999999982072,0.018332500000269647,0.053023899999971036,0.05999440000005052,0.10162620000028255,0.10858069999994768,1.00441230000024,1619.2376202000003,1623.0915582,,,,,,,,,,,,,,,,,,,,,,,,,,,,,5,D,2023-12-07_08h18.35.410,gca_avoidance_task,2022.2.4,144.05983669385918,
positions.xlsx,stimuli.xlsx,stimuli/Social2.png,stimuli/Social1.png,stimuli/Nonsocial2.png,stimuli/Nonsocial1.png,,"(0.7, -0.5)",cs_plus_s,,,,,0,0,0,0,,,,,,,,,2,14,46,3,,,,,,,,,,,,,,,,,,,,,,,,,,,,,,,,,,,,,,,,,,,,,,,,,,,,,,,,,,1623.598468,1625.0081526000001,1623.0915582,1625.0081526000001,1625.0081526000001,1625.0081526000001,0.006080600000132108,0.013168700000278477,200,none,0,,,1630.0148879,1630.0148879,0.013444600000184437,0.013444600000184437,0.019963799999914045,0.054596200000105455,0.06154289999994944,0.10319740000022648,0.11017609999998967,1.0129079000003003,1633.5078596,1637.2854833,,,,,,,,,,,,,,,,,,,,,,,,,,,,,5,D,2023-12-07_08h18.35.410,gca_avoidance_task,2022.2.4,144.05983669385918,
positions.xlsx,stimuli.xlsx,stimuli/Social2.png,stimuli/Social1.png,stimuli/Nonsocial2.png,stimuli/Nonsocial1.png,,"(-0.7, -0.5)",cs_plus_ns,,,,,0,0,0,0,,,,,,,,,2,15,47,9,,,,,,,,,,,,,,,,,,,,,,,,,,,,,,,,,,,,,,,,,,,,,,,,,,,,,,,,,,1637.7923779,1639.7714717000001,1637.2854833,1639.7714717000001,1639.7714717000001,1639.7714717000001,0.006522700000004988,0.01309480000008989,200,shock,0,,,1640.4033767000003,1640.4033767000003,0.00798720000011599,0.00798720000011599,0.017931200000020908,0.052612500000122964,0.059613700000227254,0.10121359999993729,0.10816320000003543,1.0039573000003656,1643.8962946,1648.3336473000002,,,,,,,,,,,,,,,,,,,,,,,,,,,,,5,D,2023-12-07_08h18.35.410,gca_avoidance_task,2022.2.4,144.05983669385918,
positions.xlsx,stimuli.xlsx,stimuli/Social2.png,stimuli/Social1.png,stimuli/Nonsocial2.png,stimuli/Nonsocial1.png,,"(-0.7, 0.5)",cs_plus_s,,,,,0,0,0,0,,,,,,,,,3,0,48,0,,,,,,,,,,,,,,,,,,,,,,,,,,,,,,,,,,,,,,,,,,,,,,,,,,,,,,,,,,1648.8405324000003,1650.7293296999999,1648.3336473000002,1650.7293296999999,1650.7293296999999,1650.7293296999999,0.006863800000246556,0.013422500000160653,200,none,0,,,1655.7360975,1655.7360975,0.0150232999999389,0.0150232999999389,0.02024540000002162,0.0549129000000903,0.06190550000019357,0.10347160000037547,0.11048740000023827,1.013191800000186,1659.229051,1663.1941993000003,,,,,,,,,,,,,,,,,,,,,,,,,,,,,5,D,2023-12-07_08h18.35.410,gca_avoidance_task,2022.2.4,144.05983669385918,
positions.xlsx,stimuli.xlsx,stimuli/Social2.png,stimuli/Social1.png,stimuli/Nonsocial2.png,stimuli/Nonsocial1.png,,"(0.7, 0.5)",cs_minus_s,,,,,0,0,0,0,,,,,,,,,3,1,49,6,,,,,,,,,,,,,,,,,,,,,,,,,,,,,,,,,,,,,,,,,,,,,,,,,,,,,,,,,,1663.7010736,1664.7982620999999,1663.1941993000003,1664.7982620999999,1664.7982620999999,1664.7982620999999,0.0061998000001040054,0.012953200000083598,205,reward,1,[0.5207674000002953],[0.5207859000001918],1665.3259958,1665.3259958,0.007576299999982439,0.007576299999982439,0.018178900000293652,0.05288730000029318,0.05988070000012158,0.10151429999996253,0.10844889999998486,1.004259600000296,1668.8189758,1672.5965720000002,,,,,,,,,,,,,,,,,,,,,,,,,,,,,5,D,2023-12-07_08h18.35.410,gca_avoidance_task,2022.2.4,144.05983669385918,
positions.xlsx,stimuli.xlsx,stimuli/Social2.png,stimuli/Social1.png,stimuli/Nonsocial2.png,stimuli/Nonsocial1.png,,"(0.7, -0.5)",cs_minus_s,,,,,0,0,0,0,,,,,,,,,3,2,50,7,,,,,,,,,,,,,,,,,,,,,,,,,,,,,,,,,,,,,,,,,,,,,,,,,,,,,,,,,,1673.1035329,1674.3534818,1672.5965720000002,1674.3534818,1674.3534818,1674.3534818,0.005913599999985308,0.013507600000139064,210,reward,1,[0.4518001000001277],[0.45180389999995896],1674.8117554000003,1674.8117554000003,0.006850599999779661,0.006850599999779661,0.018447500000092987,0.05313799999976254,0.06012879999980214,0.10172069999998712,0.1086712000001171,1.0044403000001694,1678.3046956,1682.1725920000001,,,,,,,,,,,,,,,,,,,,,,,,,,,,,5,D,2023-12-07_08h18.35.410,gca_avoidance_task,2022.2.4,144.05983669385918,
positions.xlsx,stimuli.xlsx,stimuli/Social2.png,stimuli/Social1.png,stimuli/Nonsocial2.png,stimuli/Nonsocial1.png,,"(0.7, -0.5)",cs_plus_ns,,,,,0,0,0,0,,,,,,,,,3,3,51,11,,,,,,,,,,,,,,,,,,,,,,,,,,,,,,,,,,,,,,,,,,,,,,,,,,,,,,,,,,1682.6794746000003,1684.1238571000001,1682.1725920000001,1684.1238571000001,1684.1238571000001,1684.1238571000001,0.006974699999773293,0.013125399999807996,210,none,0,,,1689.1375827,1689.1375827,0.014528000000154861,0.014528000000154861,0.02692220000017187,0.05460769999990589,0.061523700000179815,0.10317140000006475,0.11017080000010537,1.0128888999997798,1692.6235973999999,1696.9497759000003,,,,,,,,,,,,,,,,,,,,,,,,,,,,,5,D,2023-12-07_08h18.35.410,gca_avoidance_task,2022.2.4,144.05983669385918,
positions.xlsx,stimuli.xlsx,stimuli/Social2.png,stimuli/Social1.png,stimuli/Nonsocial2.png,stimuli/Nonsocial1.png,,"(-0.7, -0.5)",cs_plus_ns,,,,,0,0,0,0,,,,,,,,,3,4,52,9,,,,,,,,,,,,,,,,,,,,,,,,,,,,,,,,,,,,,,,,,,,,,,,,,,,,,,,,,,1697.4566674999999,1699.4010393,1696.9497759000003,1699.4010393,1699.4010393,1699.4010393,0.006738500000210479,0.013480900000104157,210,shock,1,[0.3269171000001734],[0.3269209000000046],1699.7343573,1699.7343573,0.007626900000104797,0.007626900000104797,0.01830690000042523,0.053030500000204484,0.05998859999999695,0.10158150000006572,0.1086302000003343,1.0043443000004117,1703.227287,1707.4007922000003,,,,,,,,,,,,,,,,,,,,,,,,,,,,,5,D,2023-12-07_08h18.35.410,gca_avoidance_task,2022.2.4,144.05983669385918,
positions.xlsx,stimuli.xlsx,stimuli/Social2.png,stimuli/Social1.png,stimuli/Nonsocial2.png,stimuli/Nonsocial1.png,,"(-0.7, 0.5)",cs_minus_s,,,,,0,0,0,0,,,,,,,,,3,5,53,4,,,,,,,,,,,,,,,,,,,,,,,,,,,,,,,,,,,,,,,,,,,,,,,,,,,,,,,,,,1707.9076582,1709.1367879000002,1707.4007922000003,1709.1367879000002,1709.1367879000002,1709.1367879000002,0.005955699999958597,0.013383100000282866,215,reward,1,[0.5905259999999544],[0.5905295000002297],1709.7340015000002,1709.7340015000002,0.007326300000386254,0.007326300000386254,0.018482400000266352,0.05314550000002782,0.060107199999947625,0.10176820000015141,0.10870109999996203,1.0045041000003039,1713.226931,1717.0323365000002,,,,,,,,,,,,,,,,,,,,,,,,,,,,,5,D,2023-12-07_08h18.35.410,gca_avoidance_task,2022.2.4,144.05983669385918,
positions.xlsx,stimuli.xlsx,stimuli/Social2.png,stimuli/Social1.png,stimuli/Nonsocial2.png,stimuli/Nonsocial1.png,,"(-0.7, 0.5)",cs_minus_ns,,,,,0,0,0,0,,,,,,,,,3,6,54,12,,,,,,,,,,,,,,,,,,,,,,,,,,,,,,,,,,,,,,,,,,,,,,,,,,,,,,,,,,1717.5391919,1718.5947374,1717.0323365000002,1718.5947374,1718.5947374,1718.5947374,0.007466800000202056,0.01323450000018056,220,reward,1,[0.7295344999997724],[0.7295383000000584],1719.3308713,1719.3308713,0.008077800000137358,0.008077800000137358,0.018496700000014243,0.053068700000039826,0.060033499999917694,0.1017266999997446,0.10870859999977256,1.004478399999698,1722.8237666000002,1726.4694573,,,,,,,,,,,,,,,,,,,,,,,,,,,,,5,D,2023-12-07_08h18.35.410,gca_avoidance_task,2022.2.4,144.05983669385918,
positions.xlsx,stimuli.xlsx,stimuli/Social2.png,stimuli/Social1.png,stimuli/Nonsocial2.png,stimuli/Nonsocial1.png,,"(0.7, -0.5)",cs_plus_s,,,,,0,0,0,0,,,,,,,,,3,7,55,3,,,,,,,,,,,,,,,,,,,,,,,,,,,,,,,,,,,,,,,,,,,,,,,,,,,,,,,,,,1726.9763662000003,1728.4971418000002,1726.4694573,1728.4971418000002,1728.4971418000002,1728.4971418000002,0.006245099999887316,0.013038099999903352,220,none,0,,,1733.5038894000002,1733.5038894000002,0.013374300000123185,0.013374300000123185,0.0197902999998405,0.05449080000016693,0.061465100000077655,0.1030919999998332,0.11003029999983482,1.0127317000001312,1736.9968254000003,1740.6703063000002,,,,,,,,,,,,,,,,,,,,,,,,,,,,,5,D,2023-12-07_08h18.35.410,gca_avoidance_task,2022.2.4,144.05983669385918,
positions.xlsx,stimuli.xlsx,stimuli/Social2.png,stimuli/Social1.png,stimuli/Nonsocial2.png,stimuli/Nonsocial1.png,,"(0.7, -0.5)",cs_minus_ns,,,,,0,0,0,0,,,,,,,,,3,8,56,15,,,,,,,,,,,,,,,,,,,,,,,,,,,,,,,,,,,,,,,,,,,,,,,,,,,,,,,,,,1741.1771744,1742.7187712000002,1740.6703063000002,1742.7187712000002,1742.7187712000002,1742.7187712000002,0.007207699999980832,0.013172599999961676,225,reward,1,[0.569680199999766],[0.5696838999997453],1743.2951366,1743.2951366,0.008252699999957258,0.008252699999957258,0.018355499999870517,0.053011099999821454,0.0600083999997878,0.10160589999986769,0.10854819999985921,1.004381100000046,1746.7881001000003,1750.4546411,,,,,,,,,,,,,,,,,,,,,,,,,,,,,5,D,2023-12-07_08h18.35.410,gca_avoidance_task,2022.2.4,144.05983669385918,
positions.xlsx,stimuli.xlsx,stimuli/Social2.png,stimuli/Social1.png,stimuli/Nonsocial2.png,stimuli/Nonsocial1.png,,"(-0.7, 0.5)",cs_plus_ns,,,,,0,0,0,0,,,,,,,,,3,9,57,8,,,,,,,,,,,,,,,,,,,,,,,,,,,,,,,,,,,,,,,,,,,,,,,,,,,,,,,,,,1750.9615165000002,1751.9823084000002,1750.4546411,1751.9823084000002,1751.9823084000002,1751.9823084000002,0.006946599999992031,0.01324739999972735,225,none,0,,,1756.9890389,1756.9890389,0.014305400000012014,0.014305400000012014,0.01998169999978927,0.05465849999973216,0.061649799999941024,0.10325130000001081,0.11024349999979677,1.0129455999999664,1760.4820142,1764.8151559,,,,,,,,,,,,,,,,,,,,,,,,,,,,,5,D,2023-12-07_08h18.35.410,gca_avoidance_task,2022.2.4,144.05983669385918,
positions.xlsx,stimuli.xlsx,stimuli/Social2.png,stimuli/Social1.png,stimuli/Nonsocial2.png,stimuli/Nonsocial1.png,,"(0.7, 0.5)",cs_plus_s,,,,,0,0,0,0,,,,,,,,,3,10,58,2,,,,,,,,,,,,,,,,,,,,,,,,,,,,,,,,,,,,,,,,,,,,,,,,,,,,,,,,,,1765.3220454,1766.6553354999999,1764.8151559,1766.6553354999999,1766.6553354999999,1766.6553354999999,0.006184700000176235,0.013544700000238663,225,none,0,,,1771.6621073,1771.6621073,0.014060399999834772,0.014060399999834772,0.020319799999924726,0.05494970000017929,0.06191519999993034,0.10359130000006189,0.11057600000003731,1.01327880000008,1775.1550308000003,1778.9743323,,,,,,,,,,,,,,,,,,,,,,,,,,,,,5,D,2023-12-07_08h18.35.410,gca_avoidance_task,2022.2.4,144.05983669385918,
positions.xlsx,stimuli.xlsx,stimuli/Social2.png,stimuli/Social1.png,stimuli/Nonsocial2.png,stimuli/Nonsocial1.png,,"(-0.7, -0.5)",cs_plus_s,,,,,0,0,0,0,,,,,,,,,3,11,59,1,,,,,,,,,,,,,,,,,,,,,,,,,,,,,,,,,,,,,,,,,,,,,,,,,,,,,,,,,,1779.4812140000001,1780.6895102,1778.9743323,1780.6895102,1780.6895102,1780.6895102,0.0067285999998603074,0.013238999999884982,225,none,0,,,1785.6963071000002,1785.6963071000002,0.013644300000123621,0.013644300000123621,0.02000690000022587,0.054747000000133994,0.0616373000002568,0.10329439999986789,0.11021970000001602,1.0129784999999174,1789.1892077,1793.3974053,,,,,,,,,,,,,,,,,,,,,,,,,,,,,5,D,2023-12-07_08h18.35.410,gca_avoidance_task,2022.2.4,144.05983669385918,
positions.xlsx,stimuli.xlsx,stimuli/Social2.png,stimuli/Social1.png,stimuli/Nonsocial2.png,stimuli/Nonsocial1.png,,"(-0.7, -0.5)",cs_minus_s,,,,,0,0,0,0,,,,,,,,,3,12,60,5,,,,,,,,,,,,,,,,,,,,,,,,,,,,,,,,,,,,,,,,,,,,,,,,,,,,,,,,,,1793.9042560999999,1795.5431088000003,1793.3974053,1795.5431088000003,1795.5431088000003,1795.5431088000003,0.006652500000200234,0.013208400000166876,230,reward,1,[0.5209967000000688],[0.5210004000000481],1796.0708611000002,1796.0708611000002,0.0071107000003394205,0.0071107000003394205,0.018363700000008976,0.05302120000033028,0.06001970000033907,0.10165200000028562,0.10861720000002606,1.0043711000002986,1799.5638317,1803.4942354000002,,,,,,,,,,,,,,,,,,,,,,,,,,,,,5,D,2023-12-07_08h18.35.410,gca_avoidance_task,2022.2.4,144.05983669385918,
positions.xlsx,stimuli.xlsx,stimuli/Social2.png,stimuli/Social1.png,stimuli/Nonsocial2.png,stimuli/Nonsocial1.png,,"(0.7, 0.5)",cs_plus_ns,,,,,0,0,0,0,,,,,,,,,3,13,61,10,,,,,,,,,,,,,,,,,,,,,,,,,,,,,,,,,,,,,,,,,,,,,,,,,,,,,,,,,,1804.0010902000001,1805.7371853000002,1803.4942354000002,1805.7371853000002,1805.7371853000002,1805.7371853000002,0.006575100000191014,0.01315820000036183,230,none,0,,,1810.7439105,1810.7439105,0.013548500000069907,0.013548500000069907,0.019889200000307028,0.05456510000021808,0.06157759999996415,0.10320850000016435,0.11016779999999926,1.0128732000002856,1814.2368483000002,1818.5144898,,,,,,,,,,,,,,,,,,,,,,,,,,,,,5,D,2023-12-07_08h18.35.410,gca_avoidance_task,2022.2.4,144.05983669385918,
positions.xlsx,stimuli.xlsx,stimuli/Social2.png,stimuli/Social1.png,stimuli/Nonsocial2.png,stimuli/Nonsocial1.png,,"(-0.7, -0.5)",cs_minus_ns,,,,,0,0,0,0,,,,,,,,,3,14,62,13,,,,,,,,,,,,,,,,,,,,,,,,,,,,,,,,,,,,,,,,,,,,,,,,,,,,,,,,,,1819.0213529,1820.2087859,1818.5144898,1820.2087859,1820.2087859,1820.2087859,0.007144000000153028,0.012986500000351953,235,reward,1,[0.6529497999999876],[0.6529534999999669],1820.8685014999999,1820.8685014999999,0.008634899999833578,0.008634899999833578,0.018153699999857054,0.052755199999865,0.059710699999868666,0.10140019999971628,0.10839519999990443,1.0041203999999198,1824.3613997,1828.6946163,,,,,,,,,,,,,,,,,,,,,,,,,,,,,5,D,2023-12-07_08h18.35.410,gca_avoidance_task,2022.2.4,144.05983669385918,
positions.xlsx,stimuli.xlsx,stimuli/Social2.png,stimuli/Social1.png,stimuli/Nonsocial2.png,stimuli/Nonsocial1.png,,"(0.7, 0.5)",cs_minus_ns,,,,,0,0,0,0,,,,,,,,,3,15,63,14,,,,,,,,,,,,,,,,,,,,,,,,,,,,,,,,,,,,,,,,,,,,,,,,,,,,,,,,,,1829.2014987,1830.9792022,1828.6946163,1830.9792022,1830.9792022,1830.9792022,0.006828600000062579,0.013203399999838439,240,reward,1,[0.6251118000000133],[0.6320990999997775],1831.6180605000002,1831.6180605000002,0.007602599999700033,0.007602599999700033,0.018238199999814242,0.05286889999979394,0.059825199999977485,0.10151169999971899,0.10845449999987977,1.0042553999996926,1835.1110344,1838.9303157000002,,,,,,,,,,,,,,,,,,,,,,,,,,,,,5,D,2023-12-07_08h18.35.410,gca_avoidance_task,2022.2.4,144.05983669385918,
positions.xlsx,stimuli.xlsx,stimuli/Social2.png,stimuli/Social1.png,stimuli/Nonsocial2.png,stimuli/Nonsocial1.png,,"(0.7, 0.5)",cs_minus_ns,,,,,0,0,0,0,,,,,,,,,4,0,64,14,,,,,,,,,,,,,,,,,,,,,,,,,,,,,,,,,,,,,,,,,,,,,,,,,,,,,,,,,,1839.4372061000001,1841.2635682000002,1838.9303157000002,1841.2635682000002,1841.2635682000002,1841.2635682000002,0.006997599999976956,0.013592900000276131,245,reward,1,[0.46580750000021],[0.46581090000017866],1841.7357203,1841.7357203,0.007971800000177609,0.007971800000177609,0.01878530000021783,0.053468099999918195,0.06045960000028572,0.10209389999999985,0.10906990000012229,1.004819900000257,1845.2286483999999,1849.4229375000002,,,,,,,,,,,,,,,,,,,,,,,,,,,,,5,D,2023-12-07_08h18.35.410,gca_avoidance_task,2022.2.4,144.05983669385918,
positions.xlsx,stimuli.xlsx,stimuli/Social2.png,stimuli/Social1.png,stimuli/Nonsocial2.png,stimuli/Nonsocial1.png,,"(0.7, -0.5)",cs_plus_s,,,,,0,0,0,0,,,,,,,,,4,1,65,3,,,,,,,,,,,,,,,,,,,,,,,,,,,,,,,,,,,,,,,,,,,,,,,,,,,,,,,,,,1849.9298547,1851.4020031000002,1849.4229375000002,1851.4020031000002,1851.4020031000002,1851.4020031000002,0.006266300000334013,0.013373200000387442,245,none,0,,,1856.4087563,1856.4087563,0.013631700000132696,0.013631700000132696,0.02017280000018218,0.05482770000025994,0.06179040000006353,0.10346900000013193,0.11041909999994459,1.013082299999951,1859.901713,1864.3668387,,,,,,,,,,,,,,,,,,,,,,,,,,,,,5,D,2023-12-07_08h18.35.410,gca_avoidance_task,2022.2.4,144.05983669385918,
positions.xlsx,stimuli.xlsx,stimuli/Social2.png,stimuli/Social1.png,stimuli/Nonsocial2.png,stimuli/Nonsocial1.png,,"(-0.7, 0.5)",cs_minus_s,,,,,0,0,0,0,,,,,,,,,4,2,66,4,,,,,,,,,,,,,,,,,,,,,,,,,,,,,,,,,,,,,,,,,,,,,,,,,,,,,,,,,,1864.8736964000002,1866.2764217000001,1864.3668387,1866.2764217000001,1866.2764217000001,1866.2764217000001,0.0062786999997115345,0.013315199999851757,250,reward,1,[0.20880859999988388],[0.20881250000002183],1866.4916864,1866.4916864,0.007179500000347616,0.007179500000347616,0.01827450000018871,0.05292660000031901,0.05988170000000537,0.10156540000025416,0.10850230000005467,1.0042843000001085,1869.9846719,1874.1025624000001,,,,,,,,,,,,,,,,,,,,,,,,,,,,,5,D,2023-12-07_08h18.35.410,gca_avoidance_task,2022.2.4,144.05983669385918,
positions.xlsx,stimuli.xlsx,stimuli/Social2.png,stimuli/Social1.png,stimuli/Nonsocial2.png,stimuli/Nonsocial1.png,,"(0.7, -0.5)",cs_minus_s,,,,,0,0,0,0,,,,,,,,,4,3,67,7,,,,,,,,,,,,,,,,,,,,,,,,,,,,,,,,,,,,,,,,,,,,,,,,,,,,,,,,,,1874.6094334000002,1876.0121754,1874.1025624000001,1876.0121754,1876.0121754,1876.0121754,0.005782900000212976,0.01346300000022893,255,reward,1,[0.5074325999999019],[0.5074362999998812],1876.5259921,1876.5259921,0.0071602000002712884,0.0071602000002712884,0.01825650000000678,0.052952600000025996,0.05988560000014331,0.10151540000015302,0.1085296000001108,1.0042991000000256,1880.0189558,1883.5327398000002,,,,,,,,,,,,,,,,,,,,,,,,,,,,,5,D,2023-12-07_08h18.35.410,gca_avoidance_task,2022.2.4,144.05983669385918,
positions.xlsx,stimuli.xlsx,stimuli/Social2.png,stimuli/Social1.png,stimuli/Nonsocial2.png,stimuli/Nonsocial1.png,,"(0.7, 0.5)",cs_plus_ns,,,,,0,0,0,0,,,,,,,,,4,4,68,10,,,,,,,,,,,,,,,,,,,,,,,,,,,,,,,,,,,,,,,,,,,,,,,,,,,,,,,,,,1884.0395965999999,1885.1715093999999,1883.5327398000002,1885.1715093999999,1885.1715093999999,1885.1715093999999,0.006775700000162033,0.013076900000214664,255,none,0,,,1890.1782755000002,1890.1782755000002,0.013786500000151136,0.013786500000151136,0.01984790000005887,0.05451579999999012,0.06148910000001706,0.10310920000029,0.11012460000029023,1.0128823000000011,1893.6712493000002,1897.4280354,,,,,,,,,,,,,,,,,,,,,,,,,,,,,5,D,2023-12-07_08h18.35.410,gca_avoidance_task,2022.2.4,144.05983669385918,
positions.xlsx,stimuli.xlsx,stimuli/Social2.png,stimuli/Social1.png,stimuli/Nonsocial2.png,stimuli/Nonsocial1.png,,"(-0.7, -0.5)",cs_plus_ns,,,,,0,0,0,0,,,,,,,,,4,5,69,9,,,,,,,,,,,,,,,,,,,,,,,,,,,,,,,,,,,,,,,,,,,,,,,,,,,,,,,,,,1897.9349012999999,1899.2542963000003,1897.4280354,1899.2542963000003,1899.2542963000003,1899.2542963000003,0.006527799999730632,0.013038900000083231,255,none,0,,,1904.2610382999999,1904.2610382999999,0.014109299999745417,0.014109299999745417,0.0197453000000678,0.0544409999997697,0.061370399999759684,0.10303579999981594,0.11001970000006622,1.0127232999998341,1907.7539870000003,1911.3163252000002,,,,,,,,,,,,,,,,,,,,,,,,,,,,,5,D,2023-12-07_08h18.35.410,gca_avoidance_task,2022.2.4,144.05983669385918,
positions.xlsx,stimuli.xlsx,stimuli/Social2.png,stimuli/Social1.png,stimuli/Nonsocial2.png,stimuli/Nonsocial1.png,,"(-0.7, -0.5)",cs_plus_s,,,,,0,0,0,0,,,,,,,,,4,6,70,1,,,,,,,,,,,,,,,,,,,,,,,,,,,,,,,,,,,,,,,,,,,,,,,,,,,,,,,,,,1911.8232563,1913.1009380000003,1911.3163252000002,1913.1009380000003,1913.1009380000003,1913.1009380000003,0.0063411000000996864,0.013195700000323995,255,none,0,,,1918.1077447999999,1918.1077447999999,0.01451500000030137,0.01451500000030137,0.02000339999995049,0.054676000000199565,0.06161199999996825,0.10328370000024734,0.11027770000009696,1.0129988000003323,1921.6006786,1925.7741382000002,,,,,,,,,,,,,,,,,,,,,,,,,,,,,5,D,2023-12-07_08h18.35.410,gca_avoidance_task,2022.2.4,144.05983669385918,
positions.xlsx,stimuli.xlsx,stimuli/Social2.png,stimuli/Social1.png,stimuli/Nonsocial2.png,stimuli/Nonsocial1.png,,"(-0.7, 0.5)",cs_minus_ns,,,,,0,0,0,0,,,,,,,,,4,7,71,12,,,,,,,,,,,,,,,,,,,,,,,,,,,,,,,,,,,,,,,,,,,,,,,,,,,,,,,,,,1926.2810099,1928.1003685000003,1925.7741382000002,1928.1003685000003,1928.1003685000003,1928.1003685000003,0.0074036000000887725,0.013140699999894423,260,reward,1,[0.7013919999999416],[0.7014091000000917],1928.8086747,1928.8086747,0.007339500000398402,0.007339500000398402,0.01865270000007513,0.05335320000040156,0.060284600000159116,0.1019111000000521,0.10887709999997242,1.0046873000001142,1932.3016118000003,1936.0306882000002,,,,,,,,,,,,,,,,,,,,,,,,,,,,,5,D,2023-12-07_08h18.35.410,gca_avoidance_task,2022.2.4,144.05983669385918,
positions.xlsx,stimuli.xlsx,stimuli/Social2.png,stimuli/Social1.png,stimuli/Nonsocial2.png,stimuli/Nonsocial1.png,,"(-0.7, 0.5)",cs_plus_ns,,,,,0,0,0,0,,,,,,,,,4,8,72,8,,,,,,,,,,,,,,,,,,,,,,,,,,,,,,,,,,,,,,,,,,,,,,,,,,,,,,,,,,1936.5375129000001,1938.0027701000001,1936.0306882000002,1938.0027701000001,1938.0027701000001,1938.0027701000001,0.0065764999999373686,0.013339300000097865,260,none,0,,,1943.0095561,1943.0095561,0.01442140000017389,0.01442140000017389,0.020063200000095094,0.05474969999977475,0.061668400000144175,0.10330320000002757,0.11033739999993486,1.0130255999997644,1946.5024842999999,1950.8078467000003,,,,,,,,,,,,,,,,,,,,,,,,,,,,,5,D,2023-12-07_08h18.35.410,gca_avoidance_task,2022.2.4,144.05983669385918,
positions.xlsx,stimuli.xlsx,stimuli/Social2.png,stimuli/Social1.png,stimuli/Nonsocial2.png,stimuli/Nonsocial1.png,,"(0.7, 0.5)",cs_plus_s,,,,,0,0,0,0,,,,,,,,,4,9,73,2,,,,,,,,,,,,,,,,,,,,,,,,,,,,,,,,,,,,,,,,,,,,,,,,,,,,,,,,,,1951.3147899000003,1953.0160790000002,1950.8078467000003,1953.0160790000002,1953.0160790000002,1953.0160790000002,0.006313099999715632,0.013422799999716517,260,none,0,,,1958.0228327000002,1958.0228327000002,0.013797399999930349,0.013797399999930349,0.02024009999968257,0.05484519999981785,0.0618544999997539,0.10350519999974495,0.1104749000000993,1.0131891000000905,1961.5157615,1965.2864497000003,,,,,,,,,,,,,,,,,,,,,,,,,,,,,5,D,2023-12-07_08h18.35.410,gca_avoidance_task,2022.2.4,144.05983669385918,
positions.xlsx,stimuli.xlsx,stimuli/Social2.png,stimuli/Social1.png,stimuli/Nonsocial2.png,stimuli/Nonsocial1.png,,"(-0.7, -0.5)",cs_minus_s,,,,,0,0,0,0,,,,,,,,,4,10,74,5,,,,,,,,,,,,,,,,,,,,,,,,,,,,,,,,,,,,,,,,,,,,,,,,,,,,,,,,,,1965.7933437,1967.6543806000002,1965.2864497000003,1967.6543806000002,1967.6543806000002,1967.6543806000002,0.005838100000346458,0.013611200000013923,265,reward,1,[0.55602429999999],[0.556028100000276],1968.2169415,1968.2169415,0.006506299999728071,0.006506299999728071,0.01859249999961321,0.053164899999956106,0.06013799999982439,0.10173049999957584,0.10872699999981705,1.0044780999996874,1971.709776,1975.8484838000002,,,,,,,,,,,,,,,,,,,,,,,,,,,,,5,D,2023-12-07_08h18.35.410,gca_avoidance_task,2022.2.4,144.05983669385918,
positions.xlsx,stimuli.xlsx,stimuli/Social2.png,stimuli/Social1.png,stimuli/Nonsocial2.png,stimuli/Nonsocial1.png,,"(0.7, -0.5)",cs_plus_ns,,,,,0,0,0,0,,,,,,,,,4,11,75,11,,,,,,,,,,,,,,,,,,,,,,,,,,,,,,,,,,,,,,,,,,,,,,,,,,,,,,,,,,1976.3554216,1977.7025572,1975.8484838000002,1977.7025572,1977.7025572,1977.7025572,0.00676789999988614,0.013392100000146456,265,none,0,,,1982.7093421000002,1982.7093421000002,0.014203899999756686,0.014203899999756686,0.020184099999823957,0.05481520000012097,0.061770199999955366,0.10344729999997071,0.11042649999990317,1.0131516999999803,1986.2023247,1990.2229922,,,,,,,,,,,,,,,,,,,,,,,,,,,,,5,D,2023-12-07_08h18.35.410,gca_avoidance_task,2022.2.4,144.05983669385918,
positions.xlsx,stimuli.xlsx,stimuli/Social2.png,stimuli/Social1.png,stimuli/Nonsocial2.png,stimuli/Nonsocial1.png,,"(-0.7, -0.5)",cs_minus_ns,,,,,0,0,0,0,,,,,,,,,4,12,76,13,,,,,,,,,,,,,,,,,,,,,,,,,,,,,,,,,,,,,,,,,,,,,,,,,,,,,,,,,,1990.7298587000002,1992.2853645000002,1990.2229922,1992.2853645000002,1992.2853645000002,1992.2853645000002,0.006343200000173965,0.013192699999763136,270,reward,1,[0.6183538999998746],[0.6183578000000125],1992.9103363000002,1992.9103363000002,0.007692599999700178,0.007692599999700178,0.018205399999715155,0.052865099999962695,0.059807899999668734,0.10153949999994438,0.10841609999988577,1.0042081999999937,1996.4033113000003,2000.2225851,,,,,,,,,,,,,,,,,,,,,,,,,,,,,5,D,2023-12-07_08h18.35.410,gca_avoidance_task,2022.2.4,144.05983669385918,
positions.xlsx,stimuli.xlsx,stimuli/Social2.png,stimuli/Social1.png,stimuli/Nonsocial2.png,stimuli/Nonsocial1.png,,"(-0.7, 0.5)",cs_plus_s,,,,,0,0,0,0,,,,,,,,,4,13,77,0,,,,,,,,,,,,,,,,,,,,,,,,,,,,,,,,,,,,,,,,,,,,,,,,,,,,,,,,,,2000.7294681,2001.7849747000002,2000.2225851,2001.7849747000002,2001.7849747000002,2001.7849747000002,0.006074200000057317,0.013328000000001339,270,shock,1,[0.639190299999882],[0.6391939999998613],2002.4308018,2002.4308018,0.007510700000239012,0.007510700000239012,0.018566200000350364,0.05328740000004473,0.06027830000039103,0.10186700000031124,0.10882600000013554,1.0046150000002854,2005.9237195000003,2010.3054972000002,,,,,,,,,,,,,,,,,,,,,,,,,,,,,5,D,2023-12-07_08h18.35.410,gca_avoidance_task,2022.2.4,144.05983669385918,
positions.xlsx,stimuli.xlsx,stimuli/Social2.png,stimuli/Social1.png,stimuli/Nonsocial2.png,stimuli/Nonsocial1.png,,"(0.7, -0.5)",cs_minus_ns,,,,,0,0,0,0,,,,,,,,,4,14,78,15,,,,,,,,,,,,,,,,,,,,,,,,,,,,,,,,,,,,,,,,,,,,,,,,,,,,,,,,,,2010.8123980000003,2011.9234674000002,2010.3054972000002,2011.9234674000002,2011.9234674000002,2011.9234674000002,0.007205500000054599,0.013414099999863538,275,reward,1,[0.5630793999998787],[0.563083000000006],2012.4928821,2012.4928821,0.007771099999899889,0.007771099999899889,0.01822249999986525,0.05297729999983858,0.059885199999826,0.1015583999997034,0.10847149999972316,1.004236299999775,2015.9859112000001,2020.3815301000002,,,,,,,,,,,,,,,,,,,,,,,,,,,,,5,D,2023-12-07_08h18.35.410,gca_avoidance_task,2022.2.4,144.05983669385918,
positions.xlsx,stimuli.xlsx,stimuli/Social2.png,stimuli/Social1.png,stimuli/Nonsocial2.png,stimuli/Nonsocial1.png,,"(0.7, 0.5)",cs_minus_s,,,,,0,0,0,0,,,,,,,,,4,15,79,6,,,,,,,,,,,,,,,,,,,,,,,,,,,,,,,,,,,,,,,,,,,,,,,,,,,,,,,,,,2020.8884015,2022.6800207,2020.3815301000002,2022.6800207,2022.6800207,2022.6800207,0.005739300000186631,0.013259299999845098,280,reward,1,[0.5562626000000819],[0.5562663999999131],2023.2424951,2023.2424951,0.006768799999917974,0.006768799999917974,0.01825120000012248,0.052857899999708025,0.05983509999987291,0.10154689999990296,0.10849629999984245,1.0042725999996946,2026.7354312,2030.2491840999999,,,,,,,,,,,,,,,,,,,,,,,,,,,,,5,D,2023-12-07_08h18.35.410,gca_avoidance_task,2022.2.4,144.05983669385918,
positions.xlsx,stimuli.xlsx,stimuli/Social2.png,stimuli/Social1.png,stimuli/Nonsocial2.png,stimuli/Nonsocial1.png,cs_plus_ns,,,,,,,0,0,0,0,,,,,,,,,,,,,0,0,0,1,,,,,,,,,,,,,,,,,,,,,,,,,,,,,,,,,,,,,,,,,,,2038.7419029,2038.7419029,2042.4431225,1.0,3.689911800000118,space,1.243391099999826,,,,,,,,,,,,,,,,,,,,,,,,,,,,,,,,,,,,2030.2491840999999,2030.2491840999999,2030.2491840999999,2030.2491840999999,2030.2491840999999,2030.2491840999999,2037.1239010000002,5.0,6.8613149999996494,space,1.5865556999997352,,,,,,,,,,,,5,D,2023-12-07_08h18.35.410,gca_avoidance_task,2022.2.4,144.05983669385918,
positions.xlsx,stimuli.xlsx,stimuli/Social2.png,stimuli/Social1.png,stimuli/Nonsocial2.png,stimuli/Nonsocial1.png,cs_minus_s,,,,,,,0,0,0,0,,,,,,,,,,,,,0,1,1,2,,,,,,,,,,,,,,,,,,,,,,,,,,,,,,,,,,,,,,,,,,,2043.7208484999999,2043.7208484999999,2046.1026985,10.0,2.3691665000001194,space,0.8637878999998065,,,,,,,,,,,,,,,,,,,,,,,,,,,,,,,,,,,,,,,,,,,,,,,,,,,,,,,,,,5,D,2023-12-07_08h18.35.410,gca_avoidance_task,2022.2.4,144.05983669385918,
positions.xlsx,stimuli.xlsx,stimuli/Social2.png,stimuli/Social1.png,stimuli/Nonsocial2.png,stimuli/Nonsocial1.png,cs_minus_ns,,,,,,,0,0,0,0,,,,,,,,,,,,,0,2,2,3,,,,,,,,,,,,,,,,,,,,,,,,,,,,,,,,,,,,,,,,,,,2046.9984991,2046.9984991,2048.8665191,10.0,1.8548334000001887,space,0.9967764999994415,,,,,,,,,,,,,,,,,,,,,,,,,,,,,,,,,,,,,,,,,,,,,,,,,,,,,,,,,,5,D,2023-12-07_08h18.35.410,gca_avoidance_task,2022.2.4,144.05983669385918,
positions.xlsx,stimuli.xlsx,stimuli/Social2.png,stimuli/Social1.png,stimuli/Nonsocial2.png,stimuli/Nonsocial1.png,cs_plus_s,,,,,,,0,0,0,0,,,,,,,,,,,,,0,3,3,0,,,,,,,,,,,,,,,,,,,,,,,,,,,,,,,,,,,,,,,,,,,2049.8942392999998,2049.8942392999998,2053.1718905999996,1.0,3.2582586999997147,space,0.7629128999994919,,,,,,,,,,,,,,,,,,,,,,,,,,,,,,,,,,,,,,,,,,,,,,,,,,,,,,,,,,5,D,2023-12-07_08h18.35.410,gca_avoidance_task,2022.2.4,144.05983669385918,
positions.xlsx,stimuli.xlsx,stimuli/Social2.png,stimuli/Social1.png,stimuli/Nonsocial2.png,stimuli/Nonsocial1.png,cs_plus_s,,,,,,,0,0,0,0,,,,,,,,,,,,,,,,,0,0,0,0,,,,,,,,,,,,,,,,,,,,,,,,,,,,,,,,,,,,,,,,,,,,,,,,,,,,2057.3175843,,,,,,,,,,,,,,,,,,,,,2068.3171490000004,2072.6155934999997,,,,,,,,,,,,,,,,,,2053.9427130000004,2053.9427130000004,space,2.8564636000003247,2057.8314161999997,2057.8314161999997,0.02087100000017017,0.026950700000270444,5,"[0.021923700000115787, 0.5970729000000574, 4.999766300000374, 6.145413600000211, 9.471701899999971]","[0.423240000000078, 4.839679700000033, 5.923111500000232, 9.34651410000015, 9.99942110000029]",5,D,2023-12-07_08h18.35.410,gca_avoidance_task,2022.2.4,144.05983669385918,
positions.xlsx,stimuli.xlsx,stimuli/Social2.png,stimuli/Social1.png,stimuli/Nonsocial2.png,stimuli/Nonsocial1.png,cs_plus_ns,,,,,,,0,0,0,0,,,,,,,,,,,,,,,,,0,1,1,1,,,,,,,,,,,,,,,,,,,,,,,,,,,,,,,,,,,,,,,,,,,,,,,,,,,,2072.6155934999997,,,,,,,,,,,,,,,,,,,,,2083.6221056000004,2087.7886690000005,,,,,,,,,,,,,,,,,,,,,,2073.1294328000004,2073.1294328000004,0.013213500000347267,0.020607900000413792,5,"[0.014609199999995326, 1.6949186000001646, 7.375121200000194, 8.569647900000291, 9.319511600000169]","[1.5557152000001224, 7.243027299999994, 8.416534900000443, 9.166615300000103, 10.000038800000311]",5,D,2023-12-07_08h18.35.410,gca_avoidance_task,2022.2.4,144.05983669385918,
positions.xlsx,stimuli.xlsx,stimuli/Social2.png,stimuli/Social1.png,stimuli/Nonsocial2.png,stimuli/Nonsocial1.png,cs_minus_s,,,,,,,0,0,0,0,,,,,,,,,,,,,,,,,0,2,2,2,,,,,,,,,,,,,,,,,,,,,,,,,,,,,,,,,,,,,,,,,,,,,,,,,,,,2087.7886690000005,,,,,,,,,,,,,,,,,,,,,2098.7951390999997,2102.6213588,,,,,,,,,,,,,,,,,,,,,,2088.3024648,2088.3024648,0.012692799999967974,0.02056880000009187,3,"[0.013485800000125892, 1.9240389999999934, 9.111197000000175]","[1.771850600000107, 8.916563799999949, 10.00019310000016]",5,D,2023-12-07_08h18.35.410,gca_avoidance_task,2022.2.4,144.05983669385918,
positions.xlsx,stimuli.xlsx,stimuli/Social2.png,stimuli/Social1.png,stimuli/Nonsocial2.png,stimuli/Nonsocial1.png,cs_minus_ns,,,,,,,0,0,0,0,,,,,,,,,,,,,,,,,0,3,3,3,,,,,,,,,,,,,,,,,,,,,,,,,,,,,,,,,,,,,,,,,,,,,,,,,,,,2102.6213588,,,,,,,,,,,,,,,,,,,,,2113.6279403999997,2118.1138040000005,,,,,,,,,,,,,,,,,,,,,,2103.1352069000004,2103.1352069000004,0.013885099999697559,0.02052109999976892,4,"[0.014647499999682623, 4.403000999999676, 7.528087499999856, 9.854193699999996]","[4.271096599999964, 7.381780499999877, 9.729176899999857, 10.00001489999977]",5,D,2023-12-07_08h18.35.410,gca_avoidance_task,2022.2.4,144.05983669385918,
