posFile,stimFile,cs_plus_s,cs_minus_s,cs_plus_ns,cs_minus_ns,stimtype,position,trialtype,trials_threshold.thisRepN,trials_threshold.thisTrialN,trials_threshold.thisN,trials_threshold.thisIndex,blocks.thisRepN,blocks.thisTrialN,blocks.thisN,blocks.thisIndex,ratingtrials1.thisRepN,ratingtrials1.thisTrialN,ratingtrials1.thisN,ratingtrials1.thisIndex,learning_trials.thisRepN,learning_trials.thisTrialN,learning_trials.thisN,learning_trials.thisIndex,trials.thisRepN,trials.thisTrialN,trials.thisN,trials.thisIndex,ratingtrials2.thisRepN,ratingtrials2.thisTrialN,ratingtrials2.thisN,ratingtrials2.thisIndex,testtrials.thisRepN,testtrials.thisTrialN,testtrials.thisN,testtrials.thisIndex,ratingtrials3.thisRepN,ratingtrials3.thisTrialN,ratingtrials3.thisN,ratingtrials3.thisIndex,textStart.started,spaceStart.started,spaceStart.keys,spaceStart.rt,textPainThreshold.started,spacePainThreshold.started,spacePainThreshold.keys,spacePainThreshold.rt,textRateT.started,text_noPainT.started,text_slightPainT.started,text_highPainT.started,sliderPainT.started,keys_PainT.started,sliderPainT.response,sliderPainT.rt,keys_PainT.keys,keys_PainT.rt,fixcrossT.started,portShock1T.started,portShock1T.stopped,portShock2T.started,portShock2T.stopped,portShock3T.started,portShock3T.stopped,fixcrossT.stopped,text_ETCalibration.started,spaceETCalibration.started,spaceETCalibration.keys,spaceETCalibration.rt,textStartExp.started,spaceStartExp.started,spaceStartExp.keys,spaceStartExp.rt,imageRating.started,sliderStim.started,spaceStim.started,sliderStim.response,sliderStim.rt,spaceStim.keys,spaceStim.rt,textStartTask.started,spaceStartTask.started,spaceStartTask.keys,spaceStartTask.rt,blankScreen.started,blankScreen.stopped,fixcross.started,image.started,roi.started,gazeCursor.started,portImage.started,portImage.stopped,score,outcome,roi.numLooks,roi.timesOn,roi.timesOff,imageFeedback.started,gazeCursor_Feedback.started,soundFeedback.started,portShock1.started,portShock1.stopped,portShock2.started,portShock2.stopped,portShock3.started,portShock3.stopped,soundFeedback.stopped,fixcrossE.started,fixcrossE.stopped,textRepeatTask.started,textboxRepeatInstruction.started,textRepeatSpace.started,spaceRepeatTask.started,spaceRepeatTask.keys,spaceRepeatTask.rt,textRate.started,text_noPain.started,text_slightPain.started,text_highPain.started,sliderPain.started,textSpacePain.started,spacePain.started,sliderPain.response,sliderPain.rt,spacePain.keys,spacePain.rt,textTestInstr.started,spaceTestInstr.started,spaceTestInstr.keys,spaceTestInstr.rt,imageTest.started,roiTest.started,portTestImage.started,portTestImage.stopped,roiTest.numLooks,roiTest.timesOn,roiTest.timesOff,participant,group,date,expName,psychopyVersion,frameRate,
,,,,,,,,,,,,,,,,,,,,,,,,,,,,,,,,,,,,,,,,,15.199760799994692,15.199760799994692,space,4.273099400001229,,,,,,,,,,,,,,,,,,,,,,,,,,,,,,,,,,,,,,,,,,,,,,,,,,,,,,,,,,,,,,,,,,,,,,,,,,,,,,,,,,,,,,,,,,,,,,,11,B,2023-12-08_10h00.09.841,gca_avoidance_task,2022.2.4,143.99553038158228,
,,,,,,,,,,,,,,,,,,,,,,,,,,,,,,,,,,,,,,,,,,,,,19.484278999996604,19.484278999996604,space,1.7879156999988481,,,,,,,,,,,,,,,,,,,,,,,,,,,,,,,,,,,,,,,,,,,,,,,,,,,,,,,,,,,,,,,,,,,,,,,,,,,,,,,,,,,,,,,,,,,11,B,2023-12-08_10h00.09.841,gca_avoidance_task,2022.2.4,143.99553038158228,
,,,,,,,,,0,0,0,0,,,,,,,,,,,,,,,,,,,,,,,,,,,,,,,,,,,,,22.34531249999418,22.34531249999418,22.34531249999418,22.34531249999418,22.34531249999418,22.34531249999418,None,None,s,7.8401558000041405,30.810252299997956,0.10195090000343043,0.10891900000569876,0.15056670000194572,0.1575442000030307,0.19915660000697244,0.20612899999832734,31.608840000000782,,,,,,,,,,,,,,,,,,,,,,,,,,,,,,,,,,,,,,,,,,,,,,,,,,,,,,,,,,,,,,,,,,,,,,,,,11,B,2023-12-08_10h00.09.841,gca_avoidance_task,2022.2.4,143.99553038158228,
,,,,,,,,,1,0,1,0,,,,,,,,,,,,,,,,,,,,,,,,,,,,,,,,,,,,,31.608840000000782,31.608840000000782,31.608840000000782,31.608840000000782,31.608840000000782,31.608840000000782,0.0,2.9950707999960287,s,10.27929080001195,42.44172200000321,0.10517039999831468,0.11208890000125393,0.1537423999980092,0.1607023999968078,0.20238630000676494,0.20933379999769386,,,,,,,,,,,,,,,,,,,,,,,,,,,,,,,,,,,,,,,,,,,,,,,,,,,,,,,,,,,,,,,,,,,,,,,,,,11,B,2023-12-08_10h00.09.841,gca_avoidance_task,2022.2.4,143.99553038158228,
,,,,,,,,,2,0,2,0,,,,,,,,,,,,,,,,,,,,,,,,,,,,,,,,,,,,,43.22640630000387,43.22640630000387,43.22640630000387,43.22640630000387,43.22640630000387,43.22640630000387,1.0,5.111562899997807,s,10.998370599991176,54.774557900003856,0.1019769999984419,0.10891199999605305,0.15062760000000708,0.15753640000184532,0.19922419999784324,0.2061463999998523,55.55924909999885,,,,,,,,,,,,,,,,,,,,,,,,,,,,,,,,,,,,,,,,,,,,,,,,,,,,,,,,,,,,,,,,,,,,,,,,,11,B,2023-12-08_10h00.09.841,gca_avoidance_task,2022.2.4,143.99553038158228,
,,,,,,,,,3,0,3,0,,,,,,,,,,,,,,,,,,,,,,,,,,,,,,,,,,,,,55.55924909999885,55.55924909999885,55.55924909999885,55.55924909999885,55.55924909999885,55.55924909999885,1.0,2.591223799987347,s,8.458075700007612,64.56583099999989,0.10407860000850633,0.1110564999980852,0.15267989999847487,0.1596304999984568,0.2013139000046067,0.2082827999984147,65.41997279999487,,,,,,,,,,,,,,,,,,,,,,,,,,,,,,,,,,,,,,,,,,,,,,,,,,,,,,,,,,,,,,,,,,,,,,,,,11,B,2023-12-08_10h00.09.841,gca_avoidance_task,2022.2.4,143.99553038158228,
,,,,,,,,,4,0,4,0,,,,,,,,,,,,,,,,,,,,,,,,,,,,,,,,,,,,,65.41997279999487,65.41997279999487,65.41997279999487,65.41997279999487,65.41997279999487,65.41997279999487,2.0,2.508236099994974,s,6.948177000012947,72.91274099999282,0.10487320000538602,0.11182829999597743,0.15347380000457633,0.1604434000037145,0.20208940000156872,0.20903670000552665,,,,,,,,,,,,,,,,,,,,,,,,,,,,,,,,,,,,,,,,,,,,,,,,,,,,,,,,,,,,,,,,,,,,,,,,,,11,B,2023-12-08_10h00.09.841,gca_avoidance_task,2022.2.4,143.99553038158228,
,,,,,,,,,5,0,5,0,,,,,,,,,,,,,,,,,,,,,,,,,,,,,,,,,,,,,73.8085424000019,73.8085424000019,73.8085424000019,73.8085424000019,73.8085424000019,73.8085424000019,2.0,3.0614266999909887,s,8.152479700002004,82.55820909999602,0.10430599999381229,0.11122229999455158,0.152899199994863,0.15985460000229068,0.20152770000277087,0.2085262999898987,,,,,,,,,,,,,,,,,,,,,,,,,,,,,,,,,,,,,,,,,,,,,,,,,,,,,,,,,,,,,,,,,,,,,,,,,,11,B,2023-12-08_10h00.09.841,gca_avoidance_task,2022.2.4,143.99553038158228,
,,,,,,,,,6,0,6,0,,,,,,,,,,,,,,,,,,,,,,,,,,,,,,,,,,,,,83.33590679999907,83.33590679999907,83.33590679999907,83.33590679999907,83.33590679999907,83.33590679999907,3.0,5.731385399994906,s,9.928360500009148,93.9466248999961,0.09993219999887515,0.10685329999250825,0.15547830000286922,0.16240980000293348,0.20404419999977108,0.21106849999341648,94.72433650000312,,,,,,,,,,,,,,,,,,,,,,,,,,,,,,,,,,,,,,,,,,,,,,,,,,,,,,,,,,,,,,,,,,,,,,,,,11,B,2023-12-08_10h00.09.841,gca_avoidance_task,2022.2.4,143.99553038158228,
,,,,,,,,,7,0,7,0,,,,,,,,,,,,,,,,,,,,,,,,,,,,,,,,,,,,,94.72433650000312,94.72433650000312,94.72433650000312,94.72433650000312,94.72433650000312,94.72433650000312,3.0,2.6735481999930926,s,6.756548300007125,102.02265479999187,0.10585690000152681,0.11279230000218377,0.15452969999751076,0.16141110000899062,0.20309650000126567,0.2100295999989612,,,,,,,,,,,,,,,,,,,,,,,,,,,,,,,,,,,,,,,,,,,,,,,,,,,,,,,,,,,,,,,,,,,,,,,,,,11,B,2023-12-08_10h00.09.841,gca_avoidance_task,2022.2.4,143.99553038158228,
,,,,,,,,,8,0,8,0,,,,,,,,,,,,,,,,,,,,,,,,,,,,,,,,,,,,,102.80040189999272,102.80040189999272,102.80040189999272,102.80040189999272,102.80040189999272,102.80040189999272,4.0,4.398567500000354,s,9.70425750000868,113.0500139999931,0.10517419999814592,0.11212679999880493,0.1538245999981882,0.1607271000102628,0.2024091000057524,0.20939810000709258,,,,,,,,,,,,,,,,,,,,,,,,,,,,,,,,,,,,,,,,,,,,,,,,,,,,,,,,,,,,,,,,,,,,,,,,,,11,B,2023-12-08_10h00.09.841,gca_avoidance_task,2022.2.4,143.99553038158228,
,,,,,,,,,9,0,9,0,,,,,,,,,,,,,,,,,,,,,,,,,,,,,,,,,,,,,113.95276190000004,113.95276190000004,113.95276190000004,113.95276190000004,113.95276190000004,113.95276190000004,4.0,2.8716417999967234,s,9.231971500004875,123.75097779999487,0.10415719999582507,0.11108119999698829,0.15274419999332167,0.1597194999922067,0.20132520000333898,0.208282199993846,124.53566310000315,,,,,,,,,,,,,,,,,,,,,,,,,,,,,,,,,,,,,,,,,,,,,,,,,,,,,,,,,,,,,,,,,,,,,,,,,11,B,2023-12-08_10h00.09.841,gca_avoidance_task,2022.2.4,143.99553038158228,
,,,,,,,,,10,0,10,0,,,,,,,,,,,,,,,,,,,,,,,,,,,,,,,,,,,,,124.53566310000315,124.53566310000315,124.53566310000315,124.53566310000315,124.53566310000315,124.53566310000315,4.0,2.5081260000006296,s,7.336733699994511,132.41728579999472,0.1020587999955751,0.10900509999191854,0.15064589999383315,0.15761579999525566,0.19928459999209736,0.20622439999715425,133.27146449999418,,,,,,,,,,,,,,,,,,,,,,,,,,,,,,,,,,,,,,,,,,,,,,,,,,,,,,,,,,,,,,,,,,,,,,,,,11,B,2023-12-08_10h00.09.841,gca_avoidance_task,2022.2.4,143.99553038158228,
,,,,,,,,,11,0,11,0,,,,,,,,,,,,,,,,,,,,,,,,,,,,,,,,,,,,,133.27146449999418,133.27146449999418,133.27146449999418,133.27146449999418,133.27146449999418,133.27146449999418,5.0,6.051515700004529,s,10.176884699991206,144.00017519999528,0.10448780001024716,0.11141540000971872,0.15305480000097305,0.1600585999985924,0.20166469999821857,0.20865760000015143,,,,,,,,,,,,,,,,,,,,,,,,,,,,,,,,,,,,,,,,,,,,,,,,,,,,,,,,,,,,,,,,,,,,,,,,,,11,B,2023-12-08_10h00.09.841,gca_avoidance_task,2022.2.4,143.99553038158228,
,,,,,,,,,12,0,12,0,,,,,,,,,,,,,,,,,,,,,,,,,,,,,,,,,,,,,144.8195728999999,144.8195728999999,144.8195728999999,144.8195728999999,144.8195728999999,144.8195728999999,5.0,2.1679127999959746,s,9.085469600002398,154.45113380000112,0.10209549999854062,0.10901949999970384,0.15070930001093075,0.1576136000076076,0.19926360000681598,0.20624430000316352,155.22890230000485,,,,,,,,,,,,,,,,,,,,,,,,,,,,,,,,,,,,,,,,,,,,,,,,,,,,,,,,,,,,,,,,,,,,,,,,,11,B,2023-12-08_10h00.09.841,gca_avoidance_task,2022.2.4,143.99553038158228,
,,,,,,,,,13,0,13,0,,,,,,,,,,,,,,,,,,,,,,,,,,,,,,,,,,,,,155.22890230000485,155.22890230000485,155.22890230000485,155.22890230000485,155.22890230000485,155.22890230000485,6.0,3.5653662999975495,s,10.48417920000793,166.25620170000184,0.10008160000143107,0.10704010000335984,0.15564190001168754,0.16258780000498518,0.2042275999992853,0.2112399000034202,167.040897999992,,,,,,,,,,,,,,,,,,,,,,,,,,,,,,,,,,,,,,,,,,,,,,,,,,,,,,,,,,,,,,,,,,,,,,,,,11,B,2023-12-08_10h00.09.841,gca_avoidance_task,2022.2.4,143.99553038158228,
,,,,,,,,,14,0,14,0,,,,,,,,,,,,,,,,,,,,,,,,,,,,,,,,,,,,,167.040897999992,167.040897999992,167.040897999992,167.040897999992,167.040897999992,167.040897999992,7.0,3.0068509000120685,s,6.576397800003178,174.1586954999948,0.10418759999447502,0.11114639999868814,0.1528478999971412,0.15980649999983143,0.20145180000690743,0.20845020000706427,,,,,,,,,,,,,,,,,,,,,,,,,,,,,,,,,,,,,,,,,,,,,,,,,,,,,,,,,,,,,,,,,,,,,,,,,,11,B,2023-12-08_10h00.09.841,gca_avoidance_task,2022.2.4,143.99553038158228,
,,,,,,,,,15,0,15,0,,,,,,,,,,,,,,,,,,,,,,,,,,,,,,,,,,,,,174.936374900004,174.936374900004,174.936374900004,174.936374900004,174.936374900004,174.936374900004,7.0,2.3031750000081956,s,6.680363799998304,182.32501739999861,0.10193960000469815,0.10890649999782909,0.15056619999813847,0.15748809999786317,0.19916449999436736,0.20606499999121297,183.0958149999933,,,,,,,,,,,,,,,,,,,,,,,,,,,,,,,,,,,,,,,,,,,,,,,,,,,,,,,,,,,,,,,,,,,,,,,,,11,B,2023-12-08_10h00.09.841,gca_avoidance_task,2022.2.4,143.99553038158228,
,,,,,,,,,16,0,16,0,,,,,,,,,,,,,,,,,,,,,,,,,,,,,,,,,,,,,183.0958149999933,183.0958149999933,183.0958149999933,183.0958149999933,183.0958149999933,183.0958149999933,7.0,1.6275881999899866,s,6.664653899992118,190.30386899999576,0.10064249999413732,0.10764630000630859,0.14922829999704845,0.15616980000049807,0.20480619999580085,0.21176419999392238,191.08853120000276,,,,,,,,,,,,,,,,,,,,,,,,,,,,,,,,,,,,,,,,,,,,,,,,,,,,,,,,,,,,,,,,,,,,,,,,,11,B,2023-12-08_10h00.09.841,gca_avoidance_task,2022.2.4,143.99553038158228,
,,,,,,,,,17,0,17,0,,,,,,,,,,,,,,,,,,,,,,,,,,,,,,,,,,,,,191.08853120000276,191.08853120000276,191.08853120000276,191.08853120000276,191.08853120000276,191.08853120000276,8.0,1.5390511000005063,s,5.975990599996294,197.60912480000115,0.10042750000138767,0.10743960000399966,0.14908259999356233,0.15603379999811295,0.20460080000339076,0.21153859999321867,198.38689259999956,,,,,,,,,,,,,,,,,,,,,,,,,,,,,,,,,,,,,,,,,,,,,,,,,,,,,,,,,,,,,,,,,,,,,,,,,11,B,2023-12-08_10h00.09.841,gca_avoidance_task,2022.2.4,143.99553038158228,
,,,,,,,,,18,0,18,0,,,,,,,,,,,,,,,,,,,,,,,,,,,,,,,,,,,,,198.38689259999956,198.38689259999956,198.38689259999956,198.38689259999956,198.38689259999956,198.38689259999956,8.0,2.205154700001003,s,6.694169099995634,205.61574739999196,0.10359240000252612,0.11054460000013933,0.15218960000493098,0.15915780000796076,0.20078379999904428,0.2077362000127323,206.39348359999713,,,,,,,,,,,,,,,,,,,,,,,,,,,,,,,,,,,,,,,,,,,,,,,,,,,,,,,,,,,,,,,,,,,,,,,,,11,B,2023-12-08_10h00.09.841,gca_avoidance_task,2022.2.4,143.99553038158228,
,,,,,,,,,19,0,19,0,,,,,,,,,,,,,,,,,,,,,,,,,,,,,,,,,,,,,206.39348359999713,206.39348359999713,206.39348359999713,206.39348359999713,206.39348359999713,206.39348359999713,7.0,1.2053764000011142,s,6.422919100004947,213.3584836999944,0.10157719999551773,0.10853119999228511,0.15016959999047685,0.15718909999122843,0.20575709998956881,0.21269269999174867,214.14318109999294,,,,,,,,,,,,,,,,,,,,,,,,,,,,,,,,,,,,,,,,,,,,,,,,,,,,,,,,,,,,,,,,,,,,,,,,,11,B,2023-12-08_10h00.09.841,gca_avoidance_task,2022.2.4,143.99553038158228,
,,,,,,,,,20,0,20,0,,,,,,,,,,,,,,,,,,,,,,,,,,,,,,,,,,,,,214.14318109999294,214.14318109999294,214.14318109999294,214.14318109999294,214.14318109999294,214.14318109999294,6.0,1.8040355000121053,s,8.121916499992949,222.81644579999556,0.10558600000513252,0.11250550000113435,0.15418650000356138,0.16116960000363179,0.20276559999911115,0.20972110000730027,,,,,,,,,,,,,,,,,,,,,,,,,,,,,,,,,,,,,,,,,,,,,,,,,,,,,,,,,,,,,,,,,,,,,,,,,,11,B,2023-12-08_10h00.09.841,gca_avoidance_task,2022.2.4,143.99553038158228,
,,,,,,,,,21,0,21,0,,,,,,,,,,,,,,,,,,,,,,,,,,,,,,,,,,,,,223.59416999999667,223.59416999999667,223.59416999999667,223.59416999999667,223.59416999999667,223.59416999999667,5.0,2.263590899994597,s,7.190025500007323,231.33693950000452,0.10086089999822434,0.10778599999321159,0.1494164999894565,0.15638079999189358,0.20504449999134522,0.21192409998911899,232.11469410000427,,,,,,,,,,,,,,,,,,,,,,,,,,,,,,,,,,,,,,,,,,,,,,,,,,,,,,,,,,,,,,,,,,,,,,,,,11,B,2023-12-08_10h00.09.841,gca_avoidance_task,2022.2.4,143.99553038158228,
,,,,,,,,,22,0,22,0,,,,,,,,,,,,,,,,,,,,,,,,,,,,,,,,,,,,,232.11469410000427,232.11469410000427,232.11469410000427,232.11469410000427,232.11469410000427,232.11469410000427,5.0,2.561149299988756,s,5.494020800004364,238.16999029999715,0.10213010000006761,0.10905100000672974,0.15071260000695474,0.15765970000938978,0.19933440000750124,0.20625610000570305,238.94774410000537,,,,,,,,,,,,,,,,,,,,,,,,,,,,,,,,,,,,,,,,,,,,,,,,,,,,,,,,,,,,,,,,,,,,,,,,,11,B,2023-12-08_10h00.09.841,gca_avoidance_task,2022.2.4,143.99553038158228,
,,,,,,,,,23,0,23,0,,,,,,,,,,,,,,,,,,,,,,,,,,,,,,,,,,,,,238.94774410000537,238.94774410000537,238.94774410000537,238.94774410000537,238.94774410000537,238.94774410000537,4.0,3.0616187999985414,s,6.541133699996863,246.03773640000145,0.10006430000066757,0.1070661999983713,0.1556665999960387,0.1625748999940697,0.2042308999953093,0.21123269999225158,246.8154802999925,,,,,,,,,,,,,,,,,,,,,,,,,,,,,,,,,,,,,,,,,,,,,,,,,,,,,,,,,,,,,,,,,,,,,,,,,11,B,2023-12-08_10h00.09.841,gca_avoidance_task,2022.2.4,143.99553038158228,
,,,,,,,,,24,0,24,0,,,,,,,,,,,,,,,,,,,,,,,,,,,,,,,,,,,,,246.8154802999925,246.8154802999925,246.8154802999925,246.8154802999925,246.8154802999925,246.8154802999925,5.0,1.3291047000093386,s,5.632916700007627,253.00965979999455,0.10489139999845065,0.11179149999225046,0.15345060000254307,0.16039989999262616,0.20204910000029486,0.20900499999697786,,,,,,,,,,,,,,,,,,,,,,,,,,,,,,,,,,,,,,,,,,,,,,,,,,,,,,,,,,,,,,,,,,,,,,,,,,11,B,2023-12-08_10h00.09.841,gca_avoidance_task,2022.2.4,143.99553038158228,
,,,,,,,,,25,0,25,0,,,,,,,,,,,,,,,,,,,,,,,,,,,,,,,,,,,,,253.7874049999955,253.7874049999955,253.7874049999955,253.7874049999955,253.7874049999955,253.7874049999955,5.0,3.999033700005384,s,7.653952700013178,262.18986790000054,0.10427589999744669,0.11121129999810364,0.15286940000078175,0.15983779999078251,0.20145059999777004,0.2084543999953894,,,,,,,,,,,,,,,,,,,,,,,,,,,,,,,,,,,,,,,,,,,,,,,,,,,,,,,,,,,,,,,,,,,,,,,,,,11,B,2023-12-08_10h00.09.841,gca_avoidance_task,2022.2.4,143.99553038158228,
,,,,,,,,,26,0,26,0,,,,,,,,,,,,,,,,,,,,,,,,,,,,,,,,,,,,,262.9675939000008,262.9675939000008,262.9675939000008,262.9675939000008,262.9675939000008,262.9675939000008,7.0,1.2678004999906989,s,7.394048900008784,270.91175179999846,0.1039384999894537,0.11089299999002833,0.15251489999354817,0.15949120000004768,0.20108099999197293,0.20809899999585468,271.69643209999776,,,,,,,,,,,,,,,,,,,,,,,,,,,,,,,,,,,,,,,,,,,,,,,,,,,,,,,,,,,,,,,,,,,,,,,,,11,B,2023-12-08_10h00.09.841,gca_avoidance_task,2022.2.4,143.99553038158228,
,,,,,,,,,27,0,27,0,,,,,,,,,,,,,,,,,,,,,,,,,,,,,,,,,,,,,271.69643209999776,271.69643209999776,271.69643209999776,271.69643209999776,271.69643209999776,271.69643209999776,7.0,1.0622011999948882,s,5.727960500007612,277.96701069999835,0.09904600000299979,0.10594359999231528,0.15451490000123158,0.16145649999089073,0.20311279999441467,0.21010379999643192,,,,,,,,,,,,,,,,,,,,,,,,,,,,,,,,,,,,,,,,,,,,,,,,,,,,,,,,,,,,,,,,,,,,,,,,,,11,B,2023-12-08_10h00.09.841,gca_avoidance_task,2022.2.4,143.99553038158228,
,,,,,,,,,28,0,28,0,,,,,,,,,,,,,,,,,,,,,,,,,,,,,,,,,,,,,278.7447570999939,278.7447570999939,278.7447570999939,278.7447570999939,278.7447570999939,278.7447570999939,7.0,1.3623354000010295,s,5.776249500006088,285.0708997000038,0.10464870001305826,0.11159040000347886,0.1532471000100486,0.16025620000436902,0.20185850000416394,0.20884260001184884,,,,,,,,,,,,,,,,,,,,,,,,,,,,,,,,,,,,,,,,,,,,,,,,,,,,,,,,,,,,,,,,,,,,,,,,,,11,B,2023-12-08_10h00.09.841,gca_avoidance_task,2022.2.4,143.99553038158228,
,,,,,,,,,29,0,29,0,,,,,,,,,,,,,,,,,,,,,,,,,,,,,,,,,,,,,285.93890629999805,285.93890629999805,285.93890629999805,285.93890629999805,285.93890629999805,285.93890629999805,6.0,1.7877618000056827,g,36.57341749999614,323.1318675999937,,,,,,,,,,,,,,,,,,,,,,,,,,,,,,,,,,,,,,,,,,,,,,,,,,,,,,,,,,,,,,,,,,,,,,,,,,,,,,,,11,B,2023-12-08_10h00.09.841,gca_avoidance_task,2022.2.4,143.99553038158228,
,,,,,,,,,,,,,,,,,,,,,,,,,,,,,,,,,,,,,,,,,,,,,,,,,,,,,,,,,,,,,,,,,,,323.1318675999937,323.1318675999937,space,1.8444249000021955,,,,,,,,,,,,,,,,,,,,,,,,,,,,,,,,,,,,,,,,,,,,,,,,,,,,,,,,,,,,,,,,,,,,,11,B,2023-12-08_10h00.09.841,gca_avoidance_task,2022.2.4,143.99553038158228,
positions.xlsx,stimuli.xlsx,stimuli/Social2.png,stimuli/Social1.png,stimuli/Nonsocial1.png,stimuli/Nonsocial2.png,cs_plus_s,,,,,,,0,0,0,0,0,0,0,0,,,,,,,,,,,,,,,,,,,,,,,,,,,,,,,,,,,,,,,,,,,,,,,,,,,476.3538101000013,476.3538101000013,space,15.76723640000273,492.17373470000166,492.17373470000166,499.95112810000137,6.0,7.778509399999166,space,2.1540330999996513,,,,,,,,,,,,,,,,,,,,,,,,,,,,,,,,,,,,,,,,,,,,,,,,,,,,,,,,,,11,B,2023-12-08_10h00.09.841,gca_avoidance_task,2022.2.4,143.99553038158228,
positions.xlsx,stimuli.xlsx,stimuli/Social2.png,stimuli/Social1.png,stimuli/Nonsocial1.png,stimuli/Nonsocial2.png,cs_minus_s,,,,,,,0,0,0,0,0,1,1,2,,,,,,,,,,,,,,,,,,,,,,,,,,,,,,,,,,,,,,,,,,,,,,,,,,,,,,,502.14550020000024,502.14550020000024,509.75633879999805,5.0,7.603635099992971,space,1.780139299997245,,,,,,,,,,,,,,,,,,,,,,,,,,,,,,,,,,,,,,,,,,,,,,,,,,,,,,,,,,11,B,2023-12-08_10h00.09.841,gca_avoidance_task,2022.2.4,143.99553038158228,
positions.xlsx,stimuli.xlsx,stimuli/Social2.png,stimuli/Social1.png,stimuli/Nonsocial1.png,stimuli/Nonsocial2.png,cs_minus_ns,,,,,,,0,0,0,0,0,2,2,3,,,,,,,,,,,,,,,,,,,,,,,,,,,,,,,,,,,,,,,,,,,,,,,,,,,,,,,511.57570719999785,511.57570719999785,516.0893844999955,3.0,5.534064200008288,space,2.72814429999562,,,,,,,,,,,,,,,,,,,,,,,,,,,,,,,,,,,,,,,,,,,,,,,,,,,,,,,,,,11,B,2023-12-08_10h00.09.841,gca_avoidance_task,2022.2.4,143.99553038158228,
positions.xlsx,stimuli.xlsx,stimuli/Social2.png,stimuli/Social1.png,stimuli/Nonsocial1.png,stimuli/Nonsocial2.png,cs_plus_ns,,,,,,,0,0,0,0,0,3,3,1,,,,,,,,,,,,,,,,,,,,,,,,,,,,,,,,,,,,,,,,,,,,,,,,,,,,,,,518.8462262999965,518.8462262999965,522.8460593999916,3.0,3.992402399991988,space,1.4189131000021007,,,,,,,,,,,,,,,,,,,,,,,,,,,,,,,,,,,,,,,,,,,,,,,,,,,,,,,,,,11,B,2023-12-08_10h00.09.841,gca_avoidance_task,2022.2.4,143.99553038158228,
positions.xlsx,stimuli.xlsx,stimuli/Social2.png,stimuli/Social1.png,stimuli/Nonsocial1.png,stimuli/Nonsocial2.png,,"(0.7, 0.5)",cs_plus_ns,,,,,0,0,0,0,,,,,0,0,0,10,,,,,,,,,,,,,,,,,,,,,,,,,,,,,,,,,,,,,,,,,,,,,,,,,,,,,,,,,,524.276626299994,524.276626299994,space,25.907846899994183,552.6365041999961,553.7267667999986,552.1366067999916,553.7267667999986,553.7267667999986,553.7267667999986,0.016204600004130043,0.0270106000098167,0,shock,1,[0.22938380000414327],[0.22938750000321306],553.9559249000013,553.9559249000013,0.017820599998231046,0.017820599998231046,0.025285699986852705,0.05301369998778682,0.059990999987348914,0.10161949999746867,0.1085702999989735,1.0113249999994878,557.4419710999937,560.9973536000034,,,,,,,,,,,,,,,,,,,,,,,,,,,,,11,B,2023-12-08_10h00.09.841,gca_avoidance_task,2022.2.4,143.99553038158228,
positions.xlsx,stimuli.xlsx,stimuli/Social2.png,stimuli/Social1.png,stimuli/Nonsocial1.png,stimuli/Nonsocial2.png,,"(0.7, 0.5)",cs_minus_ns,,,,,0,0,0,0,,,,,0,1,1,14,,,,,,,,,,,,,,,,,,,,,,,,,,,,,,,,,,,,,,,,,,,,,,,,,,,,,,,,,,,,,,561.5042175999988,562.5805761999945,560.9973536000034,562.5805761999945,562.5805761999945,562.5805761999945,0.007446200004778802,0.013116100002662279,5,reward,1,[0.18767569999909028],[0.18767949999892153],562.7750173999957,562.7750173999957,0.008335999998962507,0.008335999998962507,0.018325700002606027,0.05305010000301991,0.06001119999564253,0.10160730000643525,0.10866889999306295,1.0044060999935027,566.2680166999926,570.4275436000025,,,,,,,,,,,,,,,,,,,,,,,,,,,,,11,B,2023-12-08_10h00.09.841,gca_avoidance_task,2022.2.4,143.99553038158228,
positions.xlsx,stimuli.xlsx,stimuli/Social2.png,stimuli/Social1.png,stimuli/Nonsocial1.png,stimuli/Nonsocial2.png,,"(-0.7, 0.5)",cs_plus_s,,,,,0,0,0,0,,,,,0,2,2,0,,,,,,,,,,,,,,,,,,,,,,,,,,,,,,,,,,,,,,,,,,,,,,,,,,,,,,,,,,,,,,570.9344030999928,572.8857667999982,570.4275436000025,572.8857667999982,572.8857667999982,572.8857667999982,0.006589299999177456,0.013169900004868396,5,shock,1,[0.3195395999937318],[0.31954359999508597],573.2121321000013,573.2121321000013,0.0073188999958802015,0.0073188999958802015,0.018374399995082058,0.05305590000352822,0.06001580000156537,0.1016310999984853,0.10863069999322761,1.0044018000044161,576.7050338999979,580.906244400001,,,,,,,,,,,,,,,,,,,,,,,,,,,,,11,B,2023-12-08_10h00.09.841,gca_avoidance_task,2022.2.4,143.99553038158228,
positions.xlsx,stimuli.xlsx,stimuli/Social2.png,stimuli/Social1.png,stimuli/Nonsocial1.png,stimuli/Nonsocial2.png,,"(-0.7, -0.5)",cs_plus_s,,,,,0,0,0,0,,,,,0,3,3,1,,,,,,,,,,,,,,,,,,,,,,,,,,,,,,,,,,,,,,,,,,,,,,,,,,,,,,,,,,,,,,581.413152299996,583.0589131000015,580.906244400001,583.0589131000015,583.0589131000015,583.0589131000015,0.005772699994849972,0.013213600002927706,5,shock,1,[0.2573458999977447],[0.25734949999605305],583.3227953000023,583.3227953000023,0.007406799995806068,0.007406799995806068,0.018302199998288415,0.05297269999573473,0.05997249999199994,0.10161559999687597,0.10859540000092238,1.0043560000049183,586.8157683000027,591.0447618000035,,,,,,,,,,,,,,,,,,,,,,,,,,,,,11,B,2023-12-08_10h00.09.841,gca_avoidance_task,2022.2.4,143.99553038158228,
positions.xlsx,stimuli.xlsx,stimuli/Social2.png,stimuli/Social1.png,stimuli/Nonsocial1.png,stimuli/Nonsocial2.png,,"(-0.7, 0.5)",cs_minus_s,,,,,0,0,0,0,,,,,0,4,4,4,,,,,,,,,,,,,,,,,,,,,,,,,,,,,,,,,,,,,,,,,,,,,,,,,,,,,,,,,,,,,,591.5516286999919,593.3987974000047,591.0447618000035,593.3987974000047,593.3987974000047,593.3987974000047,0.005780899999081157,0.013383099998463877,10,reward,1,[0.3197604000015417],[0.3197638999990886],593.7252142999932,593.7252142999932,0.006547700002556667,0.006547700002556667,0.018910099999629892,0.05355910000798758,0.06051290000323206,0.1021171000029426,0.10911800000758376,1.0049241999950027,597.2180955999938,601.6624296999944,,,,,,,,,,,,,,,,,,,,,,,,,,,,,11,B,2023-12-08_10h00.09.841,gca_avoidance_task,2022.2.4,143.99553038158228,
positions.xlsx,stimuli.xlsx,stimuli/Social2.png,stimuli/Social1.png,stimuli/Nonsocial1.png,stimuli/Nonsocial2.png,,"(0.7, 0.5)",cs_minus_s,,,,,0,0,0,0,,,,,0,5,5,6,,,,,,,,,,,,,,,,,,,,,,,,,,,,,,,,,,,,,,,,,,,,,,,,,,,,,,,,,,,,,,602.1692794999981,603.5719916999951,601.6624296999944,603.5719916999951,603.5719916999951,603.5719916999951,0.006182899989653379,0.013213399986852892,15,reward,1,[0.1738537999917753],[0.17385719998856075],603.7525494000001,603.7525494000001,0.0073361999966437,0.0073361999966437,0.018805500003509223,0.053453900007298216,0.060418299995944835,0.10206810000818223,0.10902109999733511,1.004855100007262,607.245536699993,611.0022594000038,,,,,,,,,,,,,,,,,,,,,,,,,,,,,11,B,2023-12-08_10h00.09.841,gca_avoidance_task,2022.2.4,143.99553038158228,
positions.xlsx,stimuli.xlsx,stimuli/Social2.png,stimuli/Social1.png,stimuli/Nonsocial1.png,stimuli/Nonsocial2.png,,"(0.7, -0.5)",cs_minus_s,,,,,0,0,0,0,,,,,0,6,6,7,,,,,,,,,,,,,,,,,,,,,,,,,,,,,,,,,,,,,,,,,,,,,,,,,,,,,,,,,,,,,,611.5091825999989,613.023053900004,611.0022594000038,613.023053900004,613.023053900004,613.023053900004,0.006834400002844632,0.013292500007082708,20,reward,1,[0.22955600000568666],[0.229559600003995],613.2591613999975,613.2591613999975,0.007350100000621751,0.007350100000621751,0.018481999999494292,0.053130400003283285,0.06005400000140071,0.10176960000535473,0.10867479999433272,1.004391399997985,616.7521010999917,621.0574463999947,,,,,,,,,,,,,,,,,,,,,,,,,,,,,11,B,2023-12-08_10h00.09.841,gca_avoidance_task,2022.2.4,143.99553038158228,
positions.xlsx,stimuli.xlsx,stimuli/Social2.png,stimuli/Social1.png,stimuli/Nonsocial1.png,stimuli/Nonsocial2.png,,"(0.7, -0.5)",cs_plus_ns,,,,,0,0,0,0,,,,,0,7,7,11,,,,,,,,,,,,,,,,,,,,,,,,,,,,,,,,,,,,,,,,,,,,,,,,,,,,,,,,,,,,,,621.5643538000004,623.3767506000004,621.0574463999947,623.3767506000004,623.3767506000004,623.3767506000004,0.006713399998261593,0.013463299997965805,20,shock,1,[0.28525029998854734],[0.28525439999066293],623.6684011000034,623.6684011000034,0.008238599999458529,0.008238599999458529,0.01856880000559613,0.053258400002960116,0.06019910000031814,0.10185659999842755,0.10880319999705534,1.0046460000012303,627.1614183000056,631.6125868999952,,,,,,,,,,,,,,,,,,,,,,,,,,,,,11,B,2023-12-08_10h00.09.841,gca_avoidance_task,2022.2.4,143.99553038158228,
positions.xlsx,stimuli.xlsx,stimuli/Social2.png,stimuli/Social1.png,stimuli/Nonsocial1.png,stimuli/Nonsocial2.png,,"(-0.7, 0.5)",cs_plus_ns,,,,,0,0,0,0,,,,,0,8,8,8,,,,,,,,,,,,,,,,,,,,,,,,,,,,,,,,,,,,,,,,,,,,,,,,,,,,,,,,,,,,,,632.1194582000026,633.7374546999927,631.6125868999952,633.7374546999927,633.7374546999927,633.7374546999927,0.007710599995334633,0.013129599989042617,20,shock,1,[0.1529848999925889],[0.15298829998937435],633.8971849999944,633.8971849999944,0.008601699999417178,0.008601699999417178,0.01811430000816472,0.052787199994781986,0.059721099998569116,0.10141350000048988,0.1083855000033509,1.0041475000034552,637.3901087999984,641.5219204000023,,,,,,,,,,,,,,,,,,,,,,,,,,,,,11,B,2023-12-08_10h00.09.841,gca_avoidance_task,2022.2.4,143.99553038158228,
positions.xlsx,stimuli.xlsx,stimuli/Social2.png,stimuli/Social1.png,stimuli/Nonsocial1.png,stimuli/Nonsocial2.png,,"(0.7, -0.5)",cs_plus_s,,,,,0,0,0,0,,,,,0,9,9,3,,,,,,,,,,,,,,,,,,,,,,,,,,,,,,,,,,,,,,,,,,,,,,,,,,,,,,,,,,,,,,642.0288435999973,643.7231572000019,641.5219204000023,643.7231572000019,643.7231572000019,643.7231572000019,0.007283900005859323,0.013271100004203618,20,shock,1,[0.26432820000627544],[0.2643318000045838],643.9939978000039,643.9939978000039,0.007524800006649457,0.007524800006649457,0.018138900006306358,0.05278850000468083,0.059764799996628426,0.10139199999684934,0.10832250000385102,1.0041057000053115,647.4869366999919,651.1812819000043,,,,,,,,,,,,,,,,,,,,,,,,,,,,,11,B,2023-12-08_10h00.09.841,gca_avoidance_task,2022.2.4,143.99553038158228,
positions.xlsx,stimuli.xlsx,stimuli/Social2.png,stimuli/Social1.png,stimuli/Nonsocial1.png,stimuli/Nonsocial2.png,,"(-0.7, -0.5)",cs_minus_s,,,,,0,0,0,0,,,,,0,10,10,5,,,,,,,,,,,,,,,,,,,,,,,,,,,,,,,,,,,,,,,,,,,,,,,,,,,,,,,,,,,,,,651.6881279999943,652.7922801999957,651.1812819000043,652.7922801999957,652.7922801999957,652.7922801999957,0.006860099994810298,0.013349999993806705,25,reward,1,[0.2293890000000829],[0.22939269999915268],653.028350499997,653.028350499997,0.007188999996287748,0.007188999996287748,0.018390700002782978,0.05307199999515433,0.06001929999911226,0.10167319999891333,0.10862670000642538,1.0045403999974951,656.5213213999959,660.6531189999951,,,,,,,,,,,,,,,,,,,,,,,,,,,,,11,B,2023-12-08_10h00.09.841,gca_avoidance_task,2022.2.4,143.99553038158228,
positions.xlsx,stimuli.xlsx,stimuli/Social2.png,stimuli/Social1.png,stimuli/Nonsocial1.png,stimuli/Nonsocial2.png,,"(0.7, -0.5)",cs_minus_ns,,,,,0,0,0,0,,,,,0,11,11,15,,,,,,,,,,,,,,,,,,,,,,,,,,,,,,,,,,,,,,,,,,,,,,,,,,,,,,,,,,,,,,661.1599334999919,662.8265701999917,660.6531189999951,662.8265701999917,662.8265701999917,662.8265701999917,0.007435899999109097,0.013227200004621409,30,reward,1,[0.4030942000099458],[0.4030978000082541],663.2363141999958,663.2363141999958,0.007582099991850555,0.007582099991850555,0.018815699993865564,0.053488999998080544,0.060408499994082376,0.10208289998990949,0.10901319999538828,1.004789200000232,666.7292696999939,671.0970882999973,,,,,,,,,,,,,,,,,,,,,,,,,,,,,11,B,2023-12-08_10h00.09.841,gca_avoidance_task,2022.2.4,143.99553038158228,
positions.xlsx,stimuli.xlsx,stimuli/Social2.png,stimuli/Social1.png,stimuli/Nonsocial1.png,stimuli/Nonsocial2.png,,"(0.7, 0.5)",cs_plus_s,,,,,0,0,0,0,,,,,0,12,12,2,,,,,,,,,,,,,,,,,,,,,,,,,,,,,,,,,,,,,,,,,,,,,,,,,,,,,,,,,,,,,,671.6040111000038,673.4789416999993,671.0970882999973,673.4789416999993,673.4789416999993,673.4789416999993,0.006695100004435517,0.013519800006179139,30,shock,1,[0.23650739999720827],[0.23651090000930708],673.7219652000058,673.7219652000058,0.007292099995538592,0.007292099995538592,0.0184607999981381,0.05311510000319686,0.06004840000241529,0.10174450000340585,0.10870640000212006,1.0044760000018869,677.2149209000054,681.2494944999926,,,,,,,,,,,,,,,,,,,,,,,,,,,,,11,B,2023-12-08_10h00.09.841,gca_avoidance_task,2022.2.4,143.99553038158228,
positions.xlsx,stimuli.xlsx,stimuli/Social2.png,stimuli/Social1.png,stimuli/Nonsocial1.png,stimuli/Nonsocial2.png,,"(-0.7, -0.5)",cs_minus_ns,,,,,0,0,0,0,,,,,0,13,13,13,,,,,,,,,,,,,,,,,,,,,,,,,,,,,,,,,,,,,,,,,,,,,,,,,,,,,,,,,,,,,,681.7563630999939,682.9507891999965,681.2494944999926,682.9507891999965,682.9507891999965,682.9507891999965,0.007647000005817972,0.013115400011884049,35,reward,1,[0.18757940000796225],[0.1875832000077935],683.145231699993,683.145231699993,0.007228899994515814,0.007228899994515814,0.018292399996425956,0.05292560000088997,0.05989180000324268,0.10155649999796879,0.10848330000590067,1.0042761999939103,686.6381846000004,690.9226989000017,,,,,,,,,,,,,,,,,,,,,,,,,,,,,11,B,2023-12-08_10h00.09.841,gca_avoidance_task,2022.2.4,143.99553038158228,
positions.xlsx,stimuli.xlsx,stimuli/Social2.png,stimuli/Social1.png,stimuli/Nonsocial1.png,stimuli/Nonsocial2.png,,"(-0.7, -0.5)",cs_plus_ns,,,,,0,0,0,0,,,,,0,14,14,9,,,,,,,,,,,,,,,,,,,,,,,,,,,,,,,,,,,,,,,,,,,,,,,,,,,,,,,,,,,,,,691.4295717000059,693.4225695000059,690.9226989000017,693.4225695000059,693.4225695000059,693.4225695000059,0.0075207000045338646,0.013208400006988086,35,shock,1,[0.33348290000867564],[0.333486500006984],693.7628480999992,693.7628480999992,0.008561499998904765,0.008561499998904765,0.018958599990583025,0.05356559999927413,0.060513099990203045,0.10221379999711644,0.10916349999024533,1.0049276999925496,697.2557635999983,700.8389313999942,,,,,,,,,,,,,,,,,,,,,,,,,,,,,11,B,2023-12-08_10h00.09.841,gca_avoidance_task,2022.2.4,143.99553038158228,
positions.xlsx,stimuli.xlsx,stimuli/Social2.png,stimuli/Social1.png,stimuli/Nonsocial1.png,stimuli/Nonsocial2.png,,"(-0.7, 0.5)",cs_minus_ns,,,,,0,0,0,0,,,,,0,15,15,12,,,,,,,,,,,,,,,,,,,,,,,,,,,,,,,,,,,,,,,,,,,,,,,,,,,,,,,,,,,,,,701.3458815000049,702.4430398999975,700.8389313999942,702.4430398999975,702.4430398999975,702.4430398999975,0.006892000004881993,0.012828700011596084,40,reward,1,[0.21559830001206137],[0.21560210001189262],702.6652770999935,702.6652770999935,0.007571000009193085,0.007571000009193085,0.018259800010127947,0.05288410000503063,0.059820599999511614,0.1014949000091292,0.10847510000166949,1.0042370000010123,706.1582344999915,710.0955604000046,,,,,,,,,,,,,,,,,,,,,,,,,,,,,11,B,2023-12-08_10h00.09.841,gca_avoidance_task,2022.2.4,143.99553038158228,
positions.xlsx,stimuli.xlsx,stimuli/Social2.png,stimuli/Social1.png,stimuli/Nonsocial1.png,stimuli/Nonsocial2.png,,"(0.7, 0.5)",cs_plus_ns,,,,,0,0,0,0,,,,,1,0,16,10,,,,,,,,,,,,,,,,,,,,,,,,,,,,,,,,,,,,,,,,,,,,,,,,,,,,,,,,,,,,,,710.6024281999998,712.5190049999946,710.0955604000046,712.5190049999946,712.5190049999946,712.5190049999946,0.0063848999998299405,0.013560799998231232,40,shock,1,[0.3477448000048753],[0.3477485000039451],712.8731992999965,712.8731992999965,0.008012899997993372,0.008012899997993372,0.018425699992803857,0.05305219998990651,0.060012299989466555,0.1016652999969665,0.10865159999229945,1.0044036999897799,716.3661885000038,720.4840535999974,,,,,,,,,,,,,,,,,,,,,,,,,,,,,11,B,2023-12-08_10h00.09.841,gca_avoidance_task,2022.2.4,143.99553038158228,
positions.xlsx,stimuli.xlsx,stimuli/Social2.png,stimuli/Social1.png,stimuli/Nonsocial1.png,stimuli/Nonsocial2.png,,"(0.7, -0.5)",cs_minus_s,,,,,0,0,0,0,,,,,1,1,17,7,,,,,,,,,,,,,,,,,,,,,,,,,,,,,,,,,,,,,,,,,,,,,,,,,,,,,,,,,,,,,,720.9909097999916,722.8311129999929,720.4840535999974,722.8311129999929,722.8311129999929,722.8311129999929,0.00692200000048615,0.01325310001266189,45,reward,1,[0.2849776000075508],[0.28498120000585914],723.1227929000015,723.1227929000015,0.007619399999384768,0.007619399999384768,0.018529699998907745,0.05322159999923315,0.06012169999303296,0.10177299998758826,0.1087503999879118,1.0045355999900494,726.6157362999948,730.6433662000054,,,,,,,,,,,,,,,,,,,,,,,,,,,,,11,B,2023-12-08_10h00.09.841,gca_avoidance_task,2022.2.4,143.99553038158228,
positions.xlsx,stimuli.xlsx,stimuli/Social2.png,stimuli/Social1.png,stimuli/Nonsocial1.png,stimuli/Nonsocial2.png,,"(-0.7, -0.5)",cs_plus_s,,,,,0,0,0,0,,,,,1,2,18,1,,,,,,,,,,,,,,,,,,,,,,,,,,,,,,,,,,,,,,,,,,,,,,,,,,,,,,,,,,,,,,731.1502442000055,732.2265967999992,730.6433662000054,732.2265967999992,732.2265967999992,732.2265967999992,0.005934300002991222,0.013123600001563318,45,shock,1,[0.2847581999958493],[0.2847616999933962],732.5182298,732.5182298,0.006868900003610179,0.006868900003610179,0.018440500003634952,0.05313369999930728,0.06010860000969842,0.10173639999993611,0.10867590000270866,1.0044940000079805,736.011201699992,739.6152416999976,,,,,,,,,,,,,,,,,,,,,,,,,,,,,11,B,2023-12-08_10h00.09.841,gca_avoidance_task,2022.2.4,143.99553038158228,
positions.xlsx,stimuli.xlsx,stimuli/Social2.png,stimuli/Social1.png,stimuli/Nonsocial1.png,stimuli/Nonsocial2.png,,"(-0.7, 0.5)",cs_minus_ns,,,,,0,0,0,0,,,,,1,3,19,12,,,,,,,,,,,,,,,,,,,,,,,,,,,,,,,,,,,,,,,,,,,,,,,,,,,,,,,,,,,,,,740.1220825999917,741.8095273999934,739.6152416999976,741.8095273999934,741.8095273999934,741.8095273999934,0.006649000002653338,0.013174500010791235,50,reward,1,[0.2573116999992635],[0.2642037000041455],742.0803560999921,742.0803560999921,0.00835190000361763,0.00835190000361763,0.01822579999861773,0.052963499998440966,0.05989489999774378,0.10147819999838248,0.108436199996504,1.0042582000023685,745.5733195999928,749.6981022999971,,,,,,,,,,,,,,,,,,,,,,,,,,,,,11,B,2023-12-08_10h00.09.841,gca_avoidance_task,2022.2.4,143.99553038158228,
positions.xlsx,stimuli.xlsx,stimuli/Social2.png,stimuli/Social1.png,stimuli/Nonsocial1.png,stimuli/Nonsocial2.png,,"(0.7, 0.5)",cs_minus_s,,,,,0,0,0,0,,,,,1,4,20,6,,,,,,,,,,,,,,,,,,,,,,,,,,,,,,,,,,,,,,,,,,,,,,,,,,,,,,,,,,,,,,750.2050424000045,751.8577310999972,749.6981022999971,751.8577310999972,751.8577310999972,751.8577310999972,0.006485400008386932,0.013279899998451583,55,reward,1,[0.22989120001147967],[0.22989480000978801],752.0938100000058,752.0938100000058,0.0069847999984631315,0.0069847999984631315,0.018429300005664118,0.05308280000463128,0.060085800010710955,0.10171210000407882,0.10868870001286268,1.0044641999993473,755.5867749000026,759.9685805000045,,,,,,,,,,,,,,,,,,,,,,,,,,,,,11,B,2023-12-08_10h00.09.841,gca_avoidance_task,2022.2.4,143.99553038158228,
positions.xlsx,stimuli.xlsx,stimuli/Social2.png,stimuli/Social1.png,stimuli/Nonsocial1.png,stimuli/Nonsocial2.png,,"(-0.7, 0.5)",cs_plus_s,,,,,0,0,0,0,,,,,1,5,21,0,,,,,,,,,,,,,,,,,,,,,,,,,,,,,,,,,,,,,,,,,,,,,,,,,,,,,,,,,,,,,,760.4754665999935,762.0795743000053,759.9685805000045,762.0795743000053,762.0795743000053,762.0795743000053,0.005795699995360337,0.013258699997095391,55,shock,1,[0.2017485999967903],[0.20175239999662153],762.287863199992,762.287863199992,0.007867499996791594,0.007867499996791594,0.018385499992291443,0.05306969999219291,0.060014599992427975,0.10168249999696855,0.10867029998917133,1.0044009999983246,765.7947034999961,769.3778903000057,,,,,,,,,,,,,,,,,,,,,,,,,,,,,11,B,2023-12-08_10h00.09.841,gca_avoidance_task,2022.2.4,143.99553038158228,
positions.xlsx,stimuli.xlsx,stimuli/Social2.png,stimuli/Social1.png,stimuli/Nonsocial1.png,stimuli/Nonsocial2.png,,"(0.7, 0.5)",cs_plus_s,,,,,0,0,0,0,,,,,1,6,22,2,,,,,,,,,,,,,,,,,,,,,,,,,,,,,,,,,,,,,,,,,,,,,,,,,,,,,,,,,,,,,,769.8847872000042,771.0861275999923,769.3778903000057,771.0861275999923,771.0861275999923,771.0861275999923,0.006132800001068972,0.01312099999631755,55,shock,1,[0.2917248999874573],[0.2917285000003176],771.3777984000044,771.3777984000044,0.007254999989527278,0.007254999989527278,0.01156759999867063,0.053162299998803064,0.06016899998940062,0.10180209999089129,0.10874349999357946,1.0045379999937722,774.8777226999955,778.6622917000059,,,,,,,,,,,,,,,,,,,,,,,,,,,,,11,B,2023-12-08_10h00.09.841,gca_avoidance_task,2022.2.4,143.99553038158228,
positions.xlsx,stimuli.xlsx,stimuli/Social2.png,stimuli/Social1.png,stimuli/Nonsocial1.png,stimuli/Nonsocial2.png,,"(0.7, -0.5)",cs_plus_ns,,,,,0,0,0,0,,,,,1,7,23,11,,,,,,,,,,,,,,,,,,,,,,,,,,,,,,,,,,,,,,,,,,,,,,,,,,,,,,,,,,,,,,779.1691326,780.8912973999977,778.6622917000059,780.8912973999977,780.8912973999977,780.8912973999977,0.006589399999938905,0.012938600004417822,55,shock,1,[0.2916350000014063],[0.2916384999989532],781.1899125999917,781.1899125999917,0.008807200007140636,0.008807200007140636,0.018379200002527796,0.0530202000081772,0.05995730000722688,0.1016422000102466,0.10861429999931715,1.004341600011685,784.6828548000049,789.0229927000037,,,,,,,,,,,,,,,,,,,,,,,,,,,,,11,B,2023-12-08_10h00.09.841,gca_avoidance_task,2022.2.4,143.99553038158228,
positions.xlsx,stimuli.xlsx,stimuli/Social2.png,stimuli/Social1.png,stimuli/Nonsocial1.png,stimuli/Nonsocial2.png,,"(-0.7, 0.5)",cs_minus_s,,,,,0,0,0,0,,,,,1,8,24,4,,,,,,,,,,,,,,,,,,,,,,,,,,,,,,,,,,,,,,,,,,,,,,,,,,,,,,,,,,,,,,789.5298156999925,791.4464564999944,789.0229927000037,791.4464564999944,791.4464564999944,791.4464564999944,0.006203799988725223,0.013239899999462068,60,reward,1,[0.31275519999326207],[0.3127589999930933],791.765885899993,791.765885899993,0.0071404999907827005,0.0071404999907827005,0.01833279999846127,0.05300459999125451,0.06003280000004452,0.10167599999113008,0.1086009999999078,1.0043483000044944,795.2588577999995,798.9809224000055,,,,,,,,,,,,,,,,,,,,,,,,,,,,,11,B,2023-12-08_10h00.09.841,gca_avoidance_task,2022.2.4,143.99553038158228,
positions.xlsx,stimuli.xlsx,stimuli/Social2.png,stimuli/Social1.png,stimuli/Nonsocial1.png,stimuli/Nonsocial2.png,,"(-0.7, -0.5)",cs_plus_ns,,,,,0,0,0,0,,,,,1,9,25,9,,,,,,,,,,,,,,,,,,,,,,,,,,,,,,,,,,,,,,,,,,,,,,,,,,,,,,,,,,,,,,799.4877654000011,800.7307973999996,798.9809224000055,800.7307973999996,800.7307973999996,800.7307973999996,0.006726299994625151,0.013159099995391443,60,shock,1,[0.22932430000219028],[0.22932790000049863],800.9669008000055,800.9669008000055,0.00820299999031704,0.00820299999031704,0.018674899998586625,0.0533576999878278,0.06030539999483153,0.10196669999277219,0.10898189998988528,1.004721499994048,804.4598364999983,808.8554994000006,,,,,,,,,,,,,,,,,,,,,,,,,,,,,11,B,2023-12-08_10h00.09.841,gca_avoidance_task,2022.2.4,143.99553038158228,
positions.xlsx,stimuli.xlsx,stimuli/Social2.png,stimuli/Social1.png,stimuli/Nonsocial1.png,stimuli/Nonsocial2.png,,"(0.7, -0.5)",cs_minus_ns,,,,,0,0,0,0,,,,,1,10,26,15,,,,,,,,,,,,,,,,,,,,,,,,,,,,,,,,,,,,,,,,,,,,,,,,,,,,,,,,,,,,,,809.3623910000024,810.5151184999995,808.8554994000006,810.5151184999995,810.5151184999995,810.5151184999995,0.0069491000031121075,0.013486800002283417,65,reward,1,[0.23656839999603108],[0.23657179999281652],810.7581814000005,810.7581814000005,0.007924899997306056,0.007924899997306056,0.018521899997722358,0.053193200001260266,0.060124900002847426,0.10176920000230893,0.10875929999747314,1.004540599999018,814.2510882999923,817.8551131999993,,,,,,,,,,,,,,,,,,,,,,,,,,,,,11,B,2023-12-08_10h00.09.841,gca_avoidance_task,2022.2.4,143.99553038158228,
positions.xlsx,stimuli.xlsx,stimuli/Social2.png,stimuli/Social1.png,stimuli/Nonsocial1.png,stimuli/Nonsocial2.png,,"(0.7, 0.5)",cs_minus_ns,,,,,0,0,0,0,,,,,1,11,27,14,,,,,,,,,,,,,,,,,,,,,,,,,,,,,,,,,,,,,,,,,,,,,,,,,,,,,,,,,,,,,,818.3620521999983,820.2300132999953,817.8551131999993,820.2300132999953,820.2300132999953,820.2300132999953,0.007111100014299154,0.013329600013094023,70,reward,1,[0.2297376000060467],[0.23629840000648983],820.4730413999932,820.4730413999932,0.007455200000549667,0.007455200000549667,0.018703399997320957,0.05336700000043493,0.060299999997369014,0.101966900008847,0.108878500002902,1.0047323000035249,823.9659818999935,828.042222899996,,,,,,,,,,,,,,,,,,,,,,,,,,,,,11,B,2023-12-08_10h00.09.841,gca_avoidance_task,2022.2.4,143.99553038158228,
positions.xlsx,stimuli.xlsx,stimuli/Social2.png,stimuli/Social1.png,stimuli/Nonsocial1.png,stimuli/Nonsocial2.png,,"(-0.7, 0.5)",cs_plus_ns,,,,,0,0,0,0,,,,,1,12,28,8,,,,,,,,,,,,,,,,,,,,,,,,,,,,,,,,,,,,,,,,,,,,,,,,,,,,,,,,,,,,,,828.5491442000057,830.3129385999928,828.042222899996,830.3129385999928,830.3129385999928,830.3129385999928,0.006620300002396107,0.012723800013191067,70,shock,1,[0.20104990000254475],[0.2010535000008531],830.5212633000046,830.5212633000046,0.008656600009999238,0.008656600009999238,0.018478600002708845,0.053217900000163354,0.06015280001156498,0.10179660000721924,0.10875790000136476,1.0045116999972379,834.014241900004,838.0418592999922,,,,,,,,,,,,,,,,,,,,,,,,,,,,,11,B,2023-12-08_10h00.09.841,gca_avoidance_task,2022.2.4,143.99553038158228,
positions.xlsx,stimuli.xlsx,stimuli/Social2.png,stimuli/Social1.png,stimuli/Nonsocial1.png,stimuli/Nonsocial2.png,,"(-0.7, -0.5)",cs_minus_ns,,,,,0,0,0,0,,,,,1,13,29,13,,,,,,,,,,,,,,,,,,,,,,,,,,,,,,,,,,,,,,,,,,,,,,,,,,,,,,,,,,,,,,838.548712200005,839.9931327999948,838.0418592999922,839.9931327999948,839.9931327999948,839.9931327999948,0.006954499986022711,0.012928799988003448,75,reward,1,[0.16693859999941196],[0.1669419999961974],840.1667273000057,840.1667273000057,0.007223000007797964,0.007223000007797964,0.01839050000126008,0.05301889999827836,0.059955400007311255,0.101600399997551,0.10853680000582244,1.0043900000018766,843.6596830999915,847.9997977000021,,,,,,,,,,,,,,,,,,,,,,,,,,,,,11,B,2023-12-08_10h00.09.841,gca_avoidance_task,2022.2.4,143.99553038158228,
positions.xlsx,stimuli.xlsx,stimuli/Social2.png,stimuli/Social1.png,stimuli/Nonsocial1.png,stimuli/Nonsocial2.png,,"(0.7, -0.5)",cs_plus_s,,,,,0,0,0,0,,,,,1,14,30,3,,,,,,,,,,,,,,,,,,,,,,,,,,,,,,,,,,,,,,,,,,,,,,,,,,,,,,,,,,,,,,848.5066539999971,850.2634942000004,847.9997977000021,850.2634942000004,850.2634942000004,850.2634942000004,0.006223200005479157,0.013313699993886985,75,shock,1,[0.20866649999516085],[0.2158015000022715],850.4857555000053,850.4857555000053,0.006925000008777715,0.006925000008777715,0.01824450001004152,0.052907200006302446,0.05989600000611972,0.10155320000194479,0.10853579999820795,1.0042599000007613,853.978669899996,858.4577094999986,,,,,,,,,,,,,,,,,,,,,,,,,,,,,11,B,2023-12-08_10h00.09.841,gca_avoidance_task,2022.2.4,143.99553038158228,
positions.xlsx,stimuli.xlsx,stimuli/Social2.png,stimuli/Social1.png,stimuli/Nonsocial1.png,stimuli/Nonsocial2.png,,"(-0.7, -0.5)",cs_minus_s,,,,,0,0,0,0,,,,,1,15,31,5,,,,,,,,,,,,,,,,,,,,,,,,,,,,,,,,,,,,,,,,,,,,,,,,,,,,,,,,,,,,,,858.9646236999979,860.9436586999946,858.4577094999986,860.9436586999946,860.9436586999946,860.9436586999946,0.006126899999799207,0.013401500007603317,80,reward,1,[0.2017790999962017],[0.2017826000083005],861.151979000002,861.151979000002,0.007504700013669208,0.007504700013669208,0.018518300013965927,0.053214800005662255,0.060207200003787875,0.10184940000181086,0.10881700000027195,1.0045658000017283,864.6448890000029,867.7489358000021,,,,,,,,,,,,,,,,,,,,,,,,,,,,,11,B,2023-12-08_10h00.09.841,gca_avoidance_task,2022.2.4,143.99553038158228,
positions.xlsx,stimuli.xlsx,stimuli/Social2.png,stimuli/Social1.png,stimuli/Nonsocial1.png,stimuli/Nonsocial2.png,,"(0.7, -0.5)",cs_plus_ns,,,,,0,0,0,0,,,,,,,,,0,0,0,11,,,,,,,,,,,,,,,,,,,,,,,,,,,,,,,,,,,,,,,,,,,,,,,,,,,,,,,,,,902.9280926999927,904.4419666000031,902.4281743000029,904.4419666000031,904.4419666000031,904.4419666000031,0.006866199997602962,0.013047699991147965,80,none,0,,,909.4487296000007,909.4487296000007,0.01418329999432899,0.01418329999432899,0.019746899997699074,0.054413199992268346,0.061337799998000264,0.1030447999946773,0.10997320000024047,1.0126882000040496,912.941708600003,917.2400881999929,867.7489358000021,867.7489358000021,867.7489358000021,867.7489358000021,space,32.37199780000083,,,,,,,,,,,,,,,,,,,,,,,11,B,2023-12-08_10h00.09.841,gca_avoidance_task,2022.2.4,143.99553038158228,
positions.xlsx,stimuli.xlsx,stimuli/Social2.png,stimuli/Social1.png,stimuli/Nonsocial1.png,stimuli/Nonsocial2.png,,"(0.7, 0.5)",cs_plus_ns,,,,,0,0,0,0,,,,,,,,,0,1,1,10,,,,,,,,,,,,,,,,,,,,,,,,,,,,,,,,,,,,,,,,,,,,,,,,,,,,,,,,,,917.7469667999976,919.260795299997,917.2400881999929,919.260795299997,919.260795299997,919.260795299997,0.006849900004453957,0.013191299993195571,80,shock,1,[0.20860899999388494],[0.20861269999295473],919.4760975999961,919.4760975999961,0.008876399995642714,0.008876399995642714,0.018419699990772642,0.0530882000020938,0.06000240000139456,0.10170400000060908,0.10864849999779835,1.004420500001288,922.969005299994,926.8855389999953,,,,,,,,,,,,,,,,,,,,,,,,,,,,,11,B,2023-12-08_10h00.09.841,gca_avoidance_task,2022.2.4,143.99553038158228,
positions.xlsx,stimuli.xlsx,stimuli/Social2.png,stimuli/Social1.png,stimuli/Nonsocial1.png,stimuli/Nonsocial2.png,,"(0.7, -0.5)",cs_minus_ns,,,,,0,0,0,0,,,,,,,,,0,2,2,15,,,,,,,,,,,,,,,,,,,,,,,,,,,,,,,,,,,,,,,,,,,,,,,,,,,,,,,,,,927.3924414999929,929.0034847999923,926.8855389999953,929.0034847999923,929.0034847999923,929.0034847999923,0.007100800008629449,0.013156200002413243,85,reward,1,[0.22235480000381358],[0.22920870000962168],929.2395908000035,929.2395908000035,0.007857999997213483,0.007857999997213483,0.018540400007623248,0.053229500001179986,0.060173799996846355,0.10186419999809004,0.10875830000441056,1.0046080000029178,932.7325081000017,936.6560080999916,,,,,,,,,,,,,,,,,,,,,,,,,,,,,11,B,2023-12-08_10h00.09.841,gca_avoidance_task,2022.2.4,143.99553038158228,
positions.xlsx,stimuli.xlsx,stimuli/Social2.png,stimuli/Social1.png,stimuli/Nonsocial1.png,stimuli/Nonsocial2.png,,"(-0.7, -0.5)",cs_plus_ns,,,,,0,0,0,0,,,,,,,,,0,3,3,9,,,,,,,,,,,,,,,,,,,,,,,,,,,,,,,,,,,,,,,,,,,,,,,,,,,,,,,,,,937.1629480999982,938.5933972999919,936.6560080999916,938.5933972999919,938.5933972999919,938.5933972999919,0.007118900000932626,0.013092499997583218,85,none,0,,,943.6001107000047,943.6001107000047,0.01392189999751281,0.01392189999751281,0.01975999999558553,0.05439520000072662,0.06142929999623448,0.10310860000026878,0.11001770000439137,1.0127938999939943,947.0930466999998,951.3985020999971,,,,,,,,,,,,,,,,,,,,,,,,,,,,,11,B,2023-12-08_10h00.09.841,gca_avoidance_task,2022.2.4,143.99553038158228,
positions.xlsx,stimuli.xlsx,stimuli/Social2.png,stimuli/Social1.png,stimuli/Nonsocial1.png,stimuli/Nonsocial2.png,,"(0.7, 0.5)",cs_minus_s,,,,,0,0,0,0,,,,,,,,,0,4,4,6,,,,,,,,,,,,,,,,,,,,,,,,,,,,,,,,,,,,,,,,,,,,,,,,,,,,,,,,,,951.9053580000036,953.1275291000056,951.3985020999971,953.1275291000056,953.1275291000056,953.1275291000056,0.006957400008104742,0.01341740001225844,90,reward,1,[0.562854600007995],[0.5628583000070648],953.6969627999933,953.6969627999933,0.007736600004136562,0.007736600004136562,0.018726500013144687,0.05340710000018589,0.06038910000643227,0.10198780000791885,0.10895120000350289,1.004731900000479,957.189928199994,960.8842373999942,,,,,,,,,,,,,,,,,,,,,,,,,,,,,11,B,2023-12-08_10h00.09.841,gca_avoidance_task,2022.2.4,143.99553038158228,
positions.xlsx,stimuli.xlsx,stimuli/Social2.png,stimuli/Social1.png,stimuli/Nonsocial1.png,stimuli/Nonsocial2.png,,"(-0.7, 0.5)",cs_plus_ns,,,,,0,0,0,0,,,,,,,,,0,5,5,8,,,,,,,,,,,,,,,,,,,,,,,,,,,,,,,,,,,,,,,,,,,,,,,,,,,,,,,,,,961.3911019999941,963.0160116000043,960.8842373999942,963.0160116000043,963.0160116000043,963.0160116000043,0.00708949999534525,0.013171099999453872,90,none,0,,,968.0227847999922,968.0227847999922,0.013995999994222075,0.013995999994222075,0.019971600006101653,0.054611300001852214,0.06157109999912791,0.10327130000223406,0.11021640000399202,1.0129561000067042,971.5157440000039,975.696143299996,,,,,,,,,,,,,,,,,,,,,,,,,,,,,11,B,2023-12-08_10h00.09.841,gca_avoidance_task,2022.2.4,143.99553038158228,
positions.xlsx,stimuli.xlsx,stimuli/Social2.png,stimuli/Social1.png,stimuli/Nonsocial1.png,stimuli/Nonsocial2.png,,"(-0.7, -0.5)",cs_plus_s,,,,,0,0,0,0,,,,,,,,,0,6,6,1,,,,,,,,,,,,,,,,,,,,,,,,,,,,,,,,,,,,,,,,,,,,,,,,,,,,,,,,,,976.2029858000024,978.1960091999936,975.696143299996,978.1960091999936,978.1960091999936,978.1960091999936,0.006377699988661334,0.013189599994802848,90,shock,1,[0.5001786999928299],[0.5001822999911383],978.702962299998,978.702962299998,0.007929699990199879,0.007929699990199879,0.018272999994223937,0.05296059999091085,0.05985349998809397,0.1015315999975428,0.10849349999625701,1.00428209999518,982.195854199992,985.869328700006,,,,,,,,,,,,,,,,,,,,,,,,,,,,,11,B,2023-12-08_10h00.09.841,gca_avoidance_task,2022.2.4,143.99553038158228,
positions.xlsx,stimuli.xlsx,stimuli/Social2.png,stimuli/Social1.png,stimuli/Nonsocial1.png,stimuli/Nonsocial2.png,,"(-0.7, 0.5)",cs_minus_s,,,,,0,0,0,0,,,,,,,,,0,7,7,4,,,,,,,,,,,,,,,,,,,,,,,,,,,,,,,,,,,,,,,,,,,,,,,,,,,,,,,,,,986.376218999998,988.1955939000036,985.869328700006,988.1955939000036,988.1955939000036,988.1955939000036,0.006291099998634309,0.01313000000664033,95,reward,1,[0.4446183999971254],[0.4446220999961952],988.646965699998,988.646965699998,0.007612500005052425,0.007612500005052425,0.01842590000887867,0.05306649999693036,0.059994499999447726,0.10168300000077579,0.10864380000566598,1.004454199995962,992.1399104000011,996.3202975000022,,,,,,,,,,,,,,,,,,,,,,,,,,,,,11,B,2023-12-08_10h00.09.841,gca_avoidance_task,2022.2.4,143.99553038158228,
positions.xlsx,stimuli.xlsx,stimuli/Social2.png,stimuli/Social1.png,stimuli/Nonsocial1.png,stimuli/Nonsocial2.png,,"(-0.7, 0.5)",cs_plus_s,,,,,0,0,0,0,,,,,,,,,0,8,8,0,,,,,,,,,,,,,,,,,,,,,,,,,,,,,,,,,,,,,,,,,,,,,,,,,,,,,,,,,,996.8271833000035,998.271565899995,996.3202975000022,998.271565899995,998.271565899995,998.271565899995,0.00620050000725314,0.013247700000647455,95,none,0,,,1003.2783483999956,1003.2783483999956,0.01335809999727644,0.01335809999727644,0.020056299996213056,0.05471739999484271,0.06167890000506304,0.10330180000164546,0.11026669999409933,1.0130302000034135,1006.7712411999964,1010.4655710999941,,,,,,,,,,,,,,,,,,,,,,,,,,,,,11,B,2023-12-08_10h00.09.841,gca_avoidance_task,2022.2.4,143.99553038158228,
positions.xlsx,stimuli.xlsx,stimuli/Social2.png,stimuli/Social1.png,stimuli/Nonsocial1.png,stimuli/Nonsocial2.png,,"(0.7, 0.5)",cs_plus_s,,,,,0,0,0,0,,,,,,,,,0,9,9,2,,,,,,,,,,,,,,,,,,,,,,,,,,,,,,,,,,,,,,,,,,,,,,,,,,,,,,,,,,1010.9724316999927,1012.6876711999939,1010.4655710999941,1012.6876711999939,1012.6876711999939,1012.6876711999939,0.006110600006650202,0.013090699998429045,95,none,0,,,1017.6944698000007,1017.6944698000007,0.013582800005679019,0.013582800005679019,0.019922500010579824,0.05456879999837838,0.06151990000216756,0.10312650000560097,0.11008980000042357,1.0128593999979785,1021.1873567000002,1025.2080120000028,,,,,,,,,,,,,,,,,,,,,,,,,,,,,11,B,2023-12-08_10h00.09.841,gca_avoidance_task,2022.2.4,143.99553038158228,
positions.xlsx,stimuli.xlsx,stimuli/Social2.png,stimuli/Social1.png,stimuli/Nonsocial1.png,stimuli/Nonsocial2.png,,"(0.7, -0.5)",cs_minus_s,,,,,0,0,0,0,,,,,,,,,0,10,10,7,,,,,,,,,,,,,,,,,,,,,,,,,,,,,,,,,,,,,,,,,,,,,,,,,,,,,,,,,,1025.7150103000022,1027.3329276000004,1025.2080120000028,1027.3329276000004,1027.3329276000004,1027.3329276000004,0.0061674000025959685,0.01314180000917986,100,reward,1,[0.4445750000013504],[0.4445787000004202],1027.784304899993,1027.784304899993,0.007445700000971556,0.007445700000971556,0.018532000001869164,0.05323150000185706,0.060167199990246445,0.10184149999986403,0.10878919999231584,1.0045954999950482,1031.2772824999993,1035.2631981000013,,,,,,,,,,,,,,,,,,,,,,,,,,,,,11,B,2023-12-08_10h00.09.841,gca_avoidance_task,2022.2.4,143.99553038158228,
positions.xlsx,stimuli.xlsx,stimuli/Social2.png,stimuli/Social1.png,stimuli/Nonsocial1.png,stimuli/Nonsocial2.png,,"(0.7, -0.5)",cs_plus_s,,,,,0,0,0,0,,,,,,,,,0,11,11,3,,,,,,,,,,,,,,,,,,,,,,,,,,,,,,,,,,,,,,,,,,,,,,,,,,,,,,,,,,1035.7700748999923,1036.9228352999926,1035.2631981000013,1036.9228352999926,1036.9228352999926,1036.9228352999926,0.005619199990178458,0.013136900000972673,100,none,0,,,1041.9295765999996,1041.9295765999996,0.013367299994570203,0.013367299994570203,0.019928399997297674,0.05457979999482632,0.06152619999193121,0.103229399988777,0.1101215999951819,1.0128688999975566,1045.4224994999968,1049.8945642000035,,,,,,,,,,,,,,,,,,,,,,,,,,,,,11,B,2023-12-08_10h00.09.841,gca_avoidance_task,2022.2.4,143.99553038158228,
positions.xlsx,stimuli.xlsx,stimuli/Social2.png,stimuli/Social1.png,stimuli/Nonsocial1.png,stimuli/Nonsocial2.png,,"(0.7, 0.5)",cs_minus_ns,,,,,0,0,0,0,,,,,,,,,0,12,12,14,,,,,,,,,,,,,,,,,,,,,,,,,,,,,,,,,,,,,,,,,,,,,,,,,,,,,,,,,,1050.4014409999945,1051.734724599999,1049.8945642000035,1051.734724599999,1051.734724599999,1051.734724599999,0.006525100005092099,0.013040299993008375,105,reward,1,[0.6111969999910798],[0.61120060000394],1052.3527598999935,1052.3527598999935,0.007254399999510497,0.007254399999510497,0.01837919998797588,0.05302159998973366,0.059985899992170744,0.10163269999611657,0.10857869999017566,1.0044231999927433,1055.8457117999933,1059.7831069999957,,,,,,,,,,,,,,,,,,,,,,,,,,,,,11,B,2023-12-08_10h00.09.841,gca_avoidance_task,2022.2.4,143.99553038158228,
positions.xlsx,stimuli.xlsx,stimuli/Social2.png,stimuli/Social1.png,stimuli/Nonsocial1.png,stimuli/Nonsocial2.png,,"(-0.7, -0.5)",cs_minus_s,,,,,0,0,0,0,,,,,,,,,0,13,13,5,,,,,,,,,,,,,,,,,,,,,,,,,,,,,,,,,,,,,,,,,,,,,,,,,,,,,,,,,,1060.2899500000058,1061.421845399993,1059.7831069999957,1061.421845399993,1061.421845399993,1061.421845399993,0.0057453000044915825,0.013197000007494353,110,reward,1,[1.1459469000110403],[1.1459505000093486],1062.5746107000014,1062.5746107000014,0.006610299999010749,0.006610299999010749,0.01865420000103768,0.053244599999743514,0.06027560000075027,0.10194350000529084,0.10887470000307076,1.004617300000973,1066.067550599997,1070.4145764999994,,,,,,,,,,,,,,,,,,,,,,,,,,,,,11,B,2023-12-08_10h00.09.841,gca_avoidance_task,2022.2.4,143.99553038158228,
positions.xlsx,stimuli.xlsx,stimuli/Social2.png,stimuli/Social1.png,stimuli/Nonsocial1.png,stimuli/Nonsocial2.png,,"(-0.7, -0.5)",cs_minus_ns,,,,,0,0,0,0,,,,,,,,,0,14,14,13,,,,,,,,,,,,,,,,,,,,,,,,,,,,,,,,,,,,,,,,,,,,,,,,,,,,,,,,,,1070.9214662000013,1072.5533823000005,1070.4145764999994,1072.5533823000005,1072.5533823000005,1072.5533823000005,0.006986399996094406,0.012988099988433532,115,reward,1,[0.993076699989615],[0.9930803999886848],1073.5533273000037,1073.5533273000037,0.007470800002920441,0.007470800002920441,0.018452000003890134,0.053086700005223975,0.060014000002411194,0.10166650000610389,0.10862680000718683,1.0044646000023931,1077.0462956999982,1080.8516974999948,,,,,,,,,,,,,,,,,,,,,,,,,,,,,11,B,2023-12-08_10h00.09.841,gca_avoidance_task,2022.2.4,143.99553038158228,
positions.xlsx,stimuli.xlsx,stimuli/Social2.png,stimuli/Social1.png,stimuli/Nonsocial1.png,stimuli/Nonsocial2.png,,"(-0.7, 0.5)",cs_minus_ns,,,,,0,0,0,0,,,,,,,,,0,15,15,12,,,,,,,,,,,,,,,,,,,,,,,,,,,,,,,,,,,,,,,,,,,,,,,,,,,,,,,,,,1081.3585717999958,1082.539074100001,1080.8516974999948,1082.539074100001,1082.539074100001,1082.539074100001,0.006786400001146831,0.01314549999369774,120,reward,1,[0.8612744999991264],[0.8612781999981962],1083.4070553999918,1083.4070553999918,0.007337200004258193,0.007337200004258193,0.01834880000387784,0.053036900004372,0.059989500005031005,0.10163119999924675,0.10859249999339227,1.0044331999961287,1086.9000652999966,1090.6568589999952,,,,,,,,,,,,,,,,,,,,,,,,,,,,,11,B,2023-12-08_10h00.09.841,gca_avoidance_task,2022.2.4,143.99553038158228,
positions.xlsx,stimuli.xlsx,stimuli/Social2.png,stimuli/Social1.png,stimuli/Nonsocial1.png,stimuli/Nonsocial2.png,,"(-0.7, 0.5)",cs_plus_s,,,,,0,0,0,0,,,,,,,,,1,0,16,0,,,,,,,,,,,,,,,,,,,,,,,,,,,,,,,,,,,,,,,,,,,,,,,,,,,,,,,,,,1091.163715799994,1092.2608922999934,1090.6568589999952,1092.2608922999934,1092.2608922999934,1092.2608922999934,0.006011899997247383,0.013128999999025837,120,none,0,,,1097.2676419000054,1097.2676419000054,0.013068800006294623,0.013068800006294623,0.019913099997211248,0.05456899999990128,0.06153960000665393,0.10317430000577588,0.11017499999434222,1.0128976999985753,1100.7605707000039,1105.1562424000003,,,,,,,,,,,,,,,,,,,,,,,,,,,,,11,B,2023-12-08_10h00.09.841,gca_avoidance_task,2022.2.4,143.99553038158228,
positions.xlsx,stimuli.xlsx,stimuli/Social2.png,stimuli/Social1.png,stimuli/Nonsocial1.png,stimuli/Nonsocial2.png,,"(0.7, -0.5)",cs_minus_ns,,,,,0,0,0,0,,,,,,,,,1,1,17,15,,,,,,,,,,,,,,,,,,,,,,,,,,,,,,,,,,,,,,,,,,,,,,,,,,,,,,,,,,1105.6631444999948,1106.7325638000038,1105.1562424000003,1106.7325638000038,1106.7325638000038,1106.7325638000038,0.006636400008574128,0.012917600004584529,125,reward,1,[0.8055890000105137],[0.805592800010345],1107.5450551999966,1107.5450551999966,0.007927300001028925,0.007927300001028925,0.01837790000718087,0.053021500003524125,0.06003150000469759,0.10163030000694562,0.10865300000295974,1.0044312000100035,1111.037977,1115.3433365999954,,,,,,,,,,,,,,,,,,,,,,,,,,,,,11,B,2023-12-08_10h00.09.841,gca_avoidance_task,2022.2.4,143.99553038158228,
positions.xlsx,stimuli.xlsx,stimuli/Social2.png,stimuli/Social1.png,stimuli/Nonsocial1.png,stimuli/Nonsocial2.png,,"(0.7, -0.5)",cs_minus_s,,,,,0,0,0,0,,,,,,,,,1,2,18,7,,,,,,,,,,,,,,,,,,,,,,,,,,,,,,,,,,,,,,,,,,,,,,,,,,,,,,,,,,1115.8502465000056,1117.732118999993,1115.3433365999954,1117.732118999993,1117.732118999993,1117.732118999993,0.006008199998177588,0.013045800005784258,130,reward,1,[0.5627851000026567],[0.5627888000017265],1118.301525200004,1118.301525200004,0.007969499987666495,0.007969499987666495,0.01764079999702517,0.0523477999959141,0.059266500000376254,0.10094319999916479,0.10798139999678824,1.0036585999914678,1121.7945454,1125.8985129999928,,,,,,,,,,,,,,,,,,,,,,,,,,,,,11,B,2023-12-08_10h00.09.841,gca_avoidance_task,2022.2.4,143.99553038158228,
positions.xlsx,stimuli.xlsx,stimuli/Social2.png,stimuli/Social1.png,stimuli/Nonsocial1.png,stimuli/Nonsocial2.png,,"(-0.7, -0.5)",cs_plus_ns,,,,,0,0,0,0,,,,,,,,,1,3,19,9,,,,,,,,,,,,,,,,,,,,,,,,,,,,,,,,,,,,,,,,,,,,,,,,,,,,,,,,,,1126.405384800004,1127.6136851000047,1125.8985129999928,1127.6136851000047,1127.6136851000047,1127.6136851000047,0.006589200012967922,0.01327300000411924,130,shock,1,[0.5976465999992797],[0.6044368000002578],1128.2247769999958,1128.2247769999958,0.008222000004025176,0.008222000004025176,0.018219899997347966,0.05288269999437034,0.05980689999705646,0.1014837999973679,0.10841149999760091,1.004264899995178,1131.717745899994,1135.7939524999965,,,,,,,,,,,,,,,,,,,,,,,,,,,,,11,B,2023-12-08_10h00.09.841,gca_avoidance_task,2022.2.4,143.99553038158228,
positions.xlsx,stimuli.xlsx,stimuli/Social2.png,stimuli/Social1.png,stimuli/Nonsocial1.png,stimuli/Nonsocial2.png,,"(-0.7, -0.5)",cs_minus_s,,,,,0,0,0,0,,,,,,,,,1,4,20,5,,,,,,,,,,,,,,,,,,,,,,,,,,,,,,,,,,,,,,,,,,,,,,,,,,,,,,,,,,1136.3008211999986,1137.4952344000048,1135.7939524999965,1137.4952344000048,1137.4952344000048,1137.4952344000048,0.00597830000333488,0.013193899998441339,135,reward,1,[0.1742454000050202],[0.17424910000409],1137.6758143000043,1137.6758143000043,0.006978999997954816,0.006978999997954816,0.0177008000027854,0.05234549999295268,0.05931599999894388,0.10093179999967106,0.10788549999415409,1.0036540000000969,1141.1687645000056,1145.4393788000016,,,,,,,,,,,,,,,,,,,,,,,,,,,,,11,B,2023-12-08_10h00.09.841,gca_avoidance_task,2022.2.4,143.99553038158228,
positions.xlsx,stimuli.xlsx,stimuli/Social2.png,stimuli/Social1.png,stimuli/Nonsocial1.png,stimuli/Nonsocial2.png,,"(0.7, -0.5)",cs_plus_s,,,,,0,0,0,0,,,,,,,,,1,5,21,3,,,,,,,,,,,,,,,,,,,,,,,,,,,,,,,,,,,,,,,,,,,,,,,,,,,,,,,,,,1145.946287800005,1147.6059812000021,1145.4393788000016,1147.6059812000021,1147.6059812000021,1147.6059812000021,0.00592720000713598,0.013317700009793043,135,none,0,,,1152.6127032999939,1152.6127032999939,0.013547300011850893,0.013547300011850893,0.020017300004838035,0.05469000000448432,0.06166459999803919,0.10331550000410061,0.1103034999978263,1.0130015000031563,1156.1056921999989,1160.5776815999998,,,,,,,,,,,,,,,,,,,,,,,,,,,,,11,B,2023-12-08_10h00.09.841,gca_avoidance_task,2022.2.4,143.99553038158228,
positions.xlsx,stimuli.xlsx,stimuli/Social2.png,stimuli/Social1.png,stimuli/Nonsocial1.png,stimuli/Nonsocial2.png,,"(-0.7, 0.5)",cs_minus_ns,,,,,0,0,0,0,,,,,,,,,1,6,22,12,,,,,,,,,,,,,,,,,,,,,,,,,,,,,,,,,,,,,,,,,,,,,,,,,,,,,,,,,,1161.0845704999956,1162.167878399996,1160.5776815999998,1162.167878399996,1162.167878399996,1162.167878399996,0.006289900004048832,0.013230199998361059,140,reward,1,[0.7366048999974737],[0.7366086000110954],1162.9109353999957,1162.9109353999957,0.007451299999956973,0.007451299999956973,0.018014599991147406,0.05267879999883007,0.059650800001691096,0.1012880999915069,0.10833059999276884,1.0040154000016628,1166.4038572999998,1170.3967033999943,,,,,,,,,,,,,,,,,,,,,,,,,,,,,11,B,2023-12-08_10h00.09.841,gca_avoidance_task,2022.2.4,143.99553038158228,
positions.xlsx,stimuli.xlsx,stimuli/Social2.png,stimuli/Social1.png,stimuli/Nonsocial1.png,stimuli/Nonsocial2.png,,"(0.7, 0.5)",cs_minus_ns,,,,,0,0,0,0,,,,,,,,,1,7,23,14,,,,,,,,,,,,,,,,,,,,,,,,,,,,,,,,,,,,,,,,,,,,,,,,,,,,,,,,,,1170.9036485999968,1172.8966189000057,1170.3967033999943,1172.8966189000057,1172.8966189000057,1172.8966189000057,0.006555200001457706,0.013246700007584877,145,reward,1,[0.792238100009854],[0.7992754000006244],1173.7021386999986,1173.7021386999986,0.0076631000119959936,0.0076631000119959936,0.0181799999991199,0.05284790000587236,0.05978770001092926,0.10147520000464283,0.10842570000386331,1.004207400008454,1177.1951023000001,1181.1116127999994,,,,,,,,,,,,,,,,,,,,,,,,,,,,,11,B,2023-12-08_10h00.09.841,gca_avoidance_task,2022.2.4,143.99553038158228,
positions.xlsx,stimuli.xlsx,stimuli/Social2.png,stimuli/Social1.png,stimuli/Nonsocial1.png,stimuli/Nonsocial2.png,,"(0.7, -0.5)",cs_plus_ns,,,,,0,0,0,0,,,,,,,,,1,8,24,11,,,,,,,,,,,,,,,,,,,,,,,,,,,,,,,,,,,,,,,,,,,,,,,,,,,,,,,,,,1181.6184839000052,1182.9587189000013,1181.1116127999994,1182.9587189000013,1182.9587189000013,1182.9587189000013,0.0064652000000933185,0.013238100000307895,145,none,0,,,1187.9654620999936,1187.9654620999936,0.014389000003575347,0.014389000003575347,0.02003270000568591,0.05468719999771565,0.0616297999949893,0.10329579999961425,0.1102625000057742,1.0130043999961345,1191.4583929999935,1195.5762953999947,,,,,,,,,,,,,,,,,,,,,,,,,,,,,11,B,2023-12-08_10h00.09.841,gca_avoidance_task,2022.2.4,143.99553038158228,
positions.xlsx,stimuli.xlsx,stimuli/Social2.png,stimuli/Social1.png,stimuli/Nonsocial1.png,stimuli/Nonsocial2.png,,"(-0.7, -0.5)",cs_minus_ns,,,,,0,0,0,0,,,,,,,,,1,9,25,13,,,,,,,,,,,,,,,,,,,,,,,,,,,,,,,,,,,,,,,,,,,,,,,,,,,,,,,,,,1196.0831823000044,1197.7289808999922,1195.5762953999947,1197.7289808999922,1197.7289808999922,1197.7289808999922,0.006435199989937246,0.013156899993191473,150,reward,1,[0.46532179998757783],[0.4653251999989152],1198.2011700000003,1198.2011700000003,0.007837299999664538,0.007837299999664538,0.018275900001754053,0.05295440000190865,0.05992800000240095,0.10156029999780003,0.10851229999389034,1.004329500006861,1201.6941290999966,1205.8884182000038,,,,,,,,,,,,,,,,,,,,,,,,,,,,,11,B,2023-12-08_10h00.09.841,gca_avoidance_task,2022.2.4,143.99553038158228,
positions.xlsx,stimuli.xlsx,stimuli/Social2.png,stimuli/Social1.png,stimuli/Nonsocial1.png,stimuli/Nonsocial2.png,,"(-0.7, -0.5)",cs_plus_s,,,,,0,0,0,0,,,,,,,,,1,10,26,1,,,,,,,,,,,,,,,,,,,,,,,,,,,,,,,,,,,,,,,,,,,,,,,,,,,,,,,,,,1206.3952801999985,1207.902171499998,1205.8884182000038,1207.902171499998,1207.902171499998,1207.902171499998,0.006011200006469153,0.01276190001226496,150,none,0,,,1212.9089462999982,1212.9089462999982,0.01311379999970086,0.01311379999970086,0.019562500005122274,0.05422280001221225,0.0611611000058474,0.1028163000009954,0.10982769999827724,1.012505600010627,1216.4019082000013,1220.1864570000034,,,,,,,,,,,,,,,,,,,,,,,,,,,,,11,B,2023-12-08_10h00.09.841,gca_avoidance_task,2022.2.4,143.99553038158228,
positions.xlsx,stimuli.xlsx,stimuli/Social2.png,stimuli/Social1.png,stimuli/Nonsocial1.png,stimuli/Nonsocial2.png,,"(0.7, 0.5)",cs_plus_s,,,,,0,0,0,0,,,,,,,,,1,11,27,2,,,,,,,,,,,,,,,,,,,,,,,,,,,,,,,,,,,,,,,,,,,,,,,,,,,,,,,,,,1220.6933525000059,1222.491879299996,1220.1864570000034,1222.491879299996,1222.491879299996,1222.491879299996,0.00602709999657236,0.013112300002831034,150,none,0,,,1227.4986282000027,1227.4986282000027,0.013216999999713153,0.013216999999713153,0.01985850000346545,0.05456200000480749,0.06151680000766646,0.10316939999756869,0.11014140000042971,1.0129044000059366,1230.991559599992,1234.7691956999915,,,,,,,,,,,,,,,,,,,,,,,,,,,,,11,B,2023-12-08_10h00.09.841,gca_avoidance_task,2022.2.4,143.99553038158228,
positions.xlsx,stimuli.xlsx,stimuli/Social2.png,stimuli/Social1.png,stimuli/Nonsocial1.png,stimuli/Nonsocial2.png,,"(0.7, 0.5)",cs_plus_ns,,,,,0,0,0,0,,,,,,,,,1,12,28,10,,,,,,,,,,,,,,,,,,,,,,,,,,,,,,,,,,,,,,,,,,,,,,,,,,,,,,,,,,1235.2761133000022,1236.5052114999999,1234.7691956999915,1236.5052114999999,1236.5052114999999,1236.5052114999999,0.006470899999840185,0.013040100006037392,150,none,0,,,1241.5119575999997,1241.5119575999997,0.013947100000223145,0.013947100000223145,0.019779700000071898,0.054441500004031695,0.06140849999792408,0.10307579999789596,0.11007330000575166,1.012733900002786,1245.0049242999958,1248.7617089999985,,,,,,,,,,,,,,,,,,,,,,,,,,,,,11,B,2023-12-08_10h00.09.841,gca_avoidance_task,2022.2.4,143.99553038158228,
positions.xlsx,stimuli.xlsx,stimuli/Social2.png,stimuli/Social1.png,stimuli/Nonsocial1.png,stimuli/Nonsocial2.png,,"(0.7, 0.5)",cs_minus_s,,,,,0,0,0,0,,,,,,,,,1,13,29,6,,,,,,,,,,,,,,,,,,,,,,,,,,,,,,,,,,,,,,,,,,,,,,,,,,,,,,,,,,1249.2686266999954,1251.2686264999938,1248.7617089999985,1251.2686264999938,1251.2686264999938,1251.2686264999938,0.005808399990200996,0.013511899989680387,155,reward,1,[0.8476315000007162],[0.8476350999990245],1252.1226883000054,1252.1226883000054,0.0069091000041225925,0.0069091000041225925,0.018490700007532723,0.05317780000041239,0.06013420000090264,0.10180099999706727,0.10877740000432823,1.0045312000002014,1255.6156498999917,1259.5946122000023,,,,,,,,,,,,,,,,,,,,,,,,,,,,,11,B,2023-12-08_10h00.09.841,gca_avoidance_task,2022.2.4,143.99553038158228,
positions.xlsx,stimuli.xlsx,stimuli/Social2.png,stimuli/Social1.png,stimuli/Nonsocial1.png,stimuli/Nonsocial2.png,,"(-0.7, 0.5)",cs_plus_ns,,,,,0,0,0,0,,,,,,,,,1,14,30,8,,,,,,,,,,,,,,,,,,,,,,,,,,,,,,,,,,,,,,,,,,,,,,,,,,,,,,,,,,1260.1015409999964,1261.7472978000005,1259.5946122000023,1261.7472978000005,1261.7472978000005,1261.7472978000005,0.006453399997553788,0.013562299995101057,155,none,0,,,1266.7540215000045,1266.7540215000045,0.014658799991593696,0.014658799991593696,0.02031890000216663,0.055037999991327524,0.06203960000129882,0.10358009999617934,0.11052709999785293,1.01331239999854,1270.246990300002,1274.3510429000016,,,,,,,,,,,,,,,,,,,,,,,,,,,,,11,B,2023-12-08_10h00.09.841,gca_avoidance_task,2022.2.4,143.99553038158228,
positions.xlsx,stimuli.xlsx,stimuli/Social2.png,stimuli/Social1.png,stimuli/Nonsocial1.png,stimuli/Nonsocial2.png,,"(-0.7, 0.5)",cs_minus_s,,,,,0,0,0,0,,,,,,,,,1,15,31,4,,,,,,,,,,,,,,,,,,,,,,,,,,,,,,,,,,,,,,,,,,,,,,,,,,,,,,,,,,1274.857869200001,1276.4411516999971,1274.3510429000016,1276.4411516999971,1276.4411516999971,1276.4411516999971,0.005884500002139248,0.013134300010278821,160,reward,1,[0.4722070999996504],[0.4722111000010045],1276.9203066000046,1276.9203066000046,0.006751200009603053,0.006751200009603053,0.018481100007193163,0.05313630000455305,0.0601234000059776,0.10177750000730157,0.10872230000677519,1.0044636000093305,1280.4132167999924,1284.038099700003,,,,,,,,,,,,,,,,,,,,,,,,,,,,,11,B,2023-12-08_10h00.09.841,gca_avoidance_task,2022.2.4,143.99553038158228,
positions.xlsx,stimuli.xlsx,stimuli/Social2.png,stimuli/Social1.png,stimuli/Nonsocial1.png,stimuli/Nonsocial2.png,,"(0.7, 0.5)",cs_minus_ns,,,,,0,0,0,0,,,,,,,,,2,0,32,14,,,,,,,,,,,,,,,,,,,,,,,,,,,,,,,,,,,,,,,,,,,,,,,,,,,,,,,,,,1284.5449826999975,1285.9754863999988,1284.038099700003,1285.9754863999988,1285.9754863999988,1285.9754863999988,0.006415199997718446,0.013018700003158301,165,reward,1,[0.18067499999597203],[0.18766799999866635],1286.169988900001,1286.169988900001,0.007762699999148026,0.007762699999148026,0.018422100009047426,0.05307280000124592,0.060049400010029785,0.10162169999966864,0.1086152000061702,1.004440100005013,1289.662875599999,1293.732204400003,,,,,,,,,,,,,,,,,,,,,,,,,,,,,11,B,2023-12-08_10h00.09.841,gca_avoidance_task,2022.2.4,143.99553038158228,
positions.xlsx,stimuli.xlsx,stimuli/Social2.png,stimuli/Social1.png,stimuli/Nonsocial1.png,stimuli/Nonsocial2.png,,"(-0.7, -0.5)",cs_plus_s,,,,,0,0,0,0,,,,,,,,,2,1,33,1,,,,,,,,,,,,,,,,,,,,,,,,,,,,,,,,,,,,,,,,,,,,,,,,,,,,,,,,,,1294.2390910999966,1295.5445474000007,1293.732204400003,1295.5445474000007,1295.5445474000007,1295.5445474000007,0.00627379999787081,0.01298040000256151,165,none,0,,,1300.5513520999957,1300.5513520999957,0.01347590000659693,0.01347590000659693,0.019790899998042732,0.05444800000987016,0.0614390000118874,0.10305060000973754,0.10997650001081638,1.0127529000019422,1304.0442268000043,1308.4816184999945,,,,,,,,,,,,,,,,,,,,,,,,,,,,,11,B,2023-12-08_10h00.09.841,gca_avoidance_task,2022.2.4,143.99553038158228,
positions.xlsx,stimuli.xlsx,stimuli/Social2.png,stimuli/Social1.png,stimuli/Nonsocial1.png,stimuli/Nonsocial2.png,,"(-0.7, 0.5)",cs_plus_s,,,,,0,0,0,0,,,,,,,,,2,2,34,0,,,,,,,,,,,,,,,,,,,,,,,,,,,,,,,,,,,,,,,,,,,,,,,,,,,,,,,,,,1308.9884759999986,1310.259308099994,1308.4816184999945,1310.259308099994,1310.259308099994,1310.259308099994,0.006088299996918067,0.013248199989902787,165,none,0,,,1315.2660127999989,1315.2660127999989,0.013920500001404434,0.013920500001404434,0.019973999995272607,0.054618499998468906,0.061574899998959154,0.10319670000171755,0.1102379999938421,1.0129161999939242,1318.7589917000005,1322.8629655999976,,,,,,,,,,,,,,,,,,,,,,,,,,,,,11,B,2023-12-08_10h00.09.841,gca_avoidance_task,2022.2.4,143.99553038158228,
positions.xlsx,stimuli.xlsx,stimuli/Social2.png,stimuli/Social1.png,stimuli/Nonsocial1.png,stimuli/Nonsocial2.png,,"(0.7, -0.5)",cs_minus_s,,,,,0,0,0,0,,,,,,,,,2,3,35,7,,,,,,,,,,,,,,,,,,,,,,,,,,,,,,,,,,,,,,,,,,,,,,,,,,,,,,,,,,1323.3698560000048,1325.2239509999927,1322.8629655999976,1325.2239509999927,1325.2239509999927,1325.2239509999927,0.006237800000235438,0.01309739999123849,170,reward,1,[0.6180835999984993],[0.6180871999968076],1325.8489438999968,1325.8489438999968,0.006975099997362122,0.006975099997362122,0.01867199999105651,0.053300599989597686,0.06028199999127537,0.10196369999903254,0.10887669998919591,1.0046825999888824,1329.3418241000036,1333.0917494000023,,,,,,,,,,,,,,,,,,,,,,,,,,,,,11,B,2023-12-08_10h00.09.841,gca_avoidance_task,2022.2.4,143.99553038158228,
positions.xlsx,stimuli.xlsx,stimuli/Social2.png,stimuli/Social1.png,stimuli/Nonsocial1.png,stimuli/Nonsocial2.png,,"(0.7, 0.5)",cs_plus_s,,,,,0,0,0,0,,,,,,,,,2,4,36,2,,,,,,,,,,,,,,,,,,,,,,,,,,,,,,,,,,,,,,,,,,,,,,,,,,,,,,,,,,1333.5986328,1335.3624031999934,1333.0917494000023,1335.3624031999934,1335.3624031999934,1335.3624031999934,0.0063116999954218045,0.012897299995529465,170,shock,1,[0.20812919999298174],[0.20813269999052864],1335.5777105000016,1335.5777105000016,0.007685399992624298,0.007685399992624298,0.01887169999827165,0.053574199991999194,0.0605094999918947,0.10213020000082906,0.10904719999234658,1.0048267999954987,1339.070657999997,1343.5357922999974,,,,,,,,,,,,,,,,,,,,,,,,,,,,,11,B,2023-12-08_10h00.09.841,gca_avoidance_task,2022.2.4,143.99553038158228,
positions.xlsx,stimuli.xlsx,stimuli/Social2.png,stimuli/Social1.png,stimuli/Nonsocial1.png,stimuli/Nonsocial2.png,,"(-0.7, 0.5)",cs_plus_ns,,,,,0,0,0,0,,,,,,,,,2,5,37,8,,,,,,,,,,,,,,,,,,,,,,,,,,,,,,,,,,,,,,,,,,,,,,,,,,,,,,,,,,1344.0426541000052,1345.896768199993,1343.5357922999974,1345.896768199993,1345.896768199993,1345.896768199993,0.006928900009370409,0.013190400000894442,170,none,0,,,1350.903462400005,1350.903462400005,0.013837200007401407,0.013837200007401407,0.019888000009814277,0.05460950000269804,0.061566700009279884,0.10319730000628624,0.11014279999653809,1.012915700004669,1354.396452400004,1358.4241163999977,,,,,,,,,,,,,,,,,,,,,,,,,,,,,11,B,2023-12-08_10h00.09.841,gca_avoidance_task,2022.2.4,143.99553038158228,
positions.xlsx,stimuli.xlsx,stimuli/Social2.png,stimuli/Social1.png,stimuli/Nonsocial1.png,stimuli/Nonsocial2.png,,"(-0.7, 0.5)",cs_minus_ns,,,,,0,0,0,0,,,,,,,,,2,6,38,12,,,,,,,,,,,,,,,,,,,,,,,,,,,,,,,,,,,,,,,,,,,,,,,,,,,,,,,,,,1358.930966800006,1360.1739531000057,1358.4241163999977,1360.1739531000057,1360.1739531000057,1360.1739531000057,0.006647400005022064,0.013031299997237511,175,reward,1,[0.6529381000000285],[0.6529420000006212],1360.8336568999948,1360.8336568999948,0.00782220000110101,0.00782220000110101,0.018144500005291775,0.052880700008245185,0.059771600004751235,0.10143130000506062,0.10841530001198407,1.004223900003126,1364.3266571999993,1367.9029074999999,,,,,,,,,,,,,,,,,,,,,,,,,,,,,11,B,2023-12-08_10h00.09.841,gca_avoidance_task,2022.2.4,143.99553038158228,
positions.xlsx,stimuli.xlsx,stimuli/Social2.png,stimuli/Social1.png,stimuli/Nonsocial1.png,stimuli/Nonsocial2.png,,"(0.7, 0.5)",cs_minus_s,,,,,0,0,0,0,,,,,,,,,2,7,39,6,,,,,,,,,,,,,,,,,,,,,,,,,,,,,,,,,,,,,,,,,,,,,,,,,,,,,,,,,,1368.409738000002,1370.1180919000035,1367.9029074999999,1370.1180919000035,1370.1180919000035,1370.1180919000035,0.006283800001256168,0.012928399999509566,180,reward,1,[0.6804887000034796],[0.6804924000025494],1370.805502000003,1370.805502000003,0.007193500001449138,0.007193500001449138,0.01828899999964051,0.052899299989803694,0.05989029999182094,0.1015451999992365,0.10846180000226013,1.0042448999884073,1374.2984474999976,1378.6941101999982,,,,,,,,,,,,,,,,,,,,,,,,,,,,,11,B,2023-12-08_10h00.09.841,gca_avoidance_task,2022.2.4,143.99553038158228,
positions.xlsx,stimuli.xlsx,stimuli/Social2.png,stimuli/Social1.png,stimuli/Nonsocial1.png,stimuli/Nonsocial2.png,,"(0.7, -0.5)",cs_minus_ns,,,,,0,0,0,0,,,,,,,,,2,8,40,15,,,,,,,,,,,,,,,,,,,,,,,,,,,,,,,,,,,,,,,,,,,,,,,,,,,,,,,,,,1379.2010006000055,1380.5620921999944,1378.6941101999982,1380.5620921999944,1380.5620921999944,1380.5620921999944,0.0065553999884286895,0.01350859999365639,185,reward,1,[0.4240655999892624],[0.42406959999061655],1380.9926194,1380.9926194,0.008210500003769994,0.008210500003769994,0.018831800000043586,0.053428100000019185,0.06039199999941047,0.10206070001004264,0.10900080000283197,1.00476979999803,1384.485516700006,1388.4159407999978,,,,,,,,,,,,,,,,,,,,,,,,,,,,,11,B,2023-12-08_10h00.09.841,gca_avoidance_task,2022.2.4,143.99553038158228,
positions.xlsx,stimuli.xlsx,stimuli/Social2.png,stimuli/Social1.png,stimuli/Nonsocial1.png,stimuli/Nonsocial2.png,,"(0.7, -0.5)",cs_plus_s,,,,,0,0,0,0,,,,,,,,,2,9,41,3,,,,,,,,,,,,,,,,,,,,,,,,,,,,,,,,,,,,,,,,,,,,,,,,,,,,,,,,,,1388.922841099993,1390.4505436000036,1388.4159407999978,1390.4505436000036,1390.4505436000036,1390.4505436000036,0.005905999991227873,0.012940499989781529,185,none,0,,,1395.4572962999955,1395.4572962999955,0.013625199993839487,0.013625199993839487,0.01969950000056997,0.05438200000207871,0.06137239999952726,0.10297219999483787,0.10994129999016877,1.0126579999923706,1398.9502210999926,1403.2764917000022,,,,,,,,,,,,,,,,,,,,,,,,,,,,,11,B,2023-12-08_10h00.09.841,gca_avoidance_task,2022.2.4,143.99553038158228,
positions.xlsx,stimuli.xlsx,stimuli/Social2.png,stimuli/Social1.png,stimuli/Nonsocial1.png,stimuli/Nonsocial2.png,,"(0.7, 0.5)",cs_plus_ns,,,,,0,0,0,0,,,,,,,,,2,10,42,10,,,,,,,,,,,,,,,,,,,,,,,,,,,,,,,,,,,,,,,,,,,,,,,,,,,,,,,,,,1403.783355499996,1404.8319234999944,1403.2764917000022,1404.8319234999944,1404.8319234999944,1404.8319234999944,0.006680700011202134,0.013251299998955801,185,none,0,,,1409.8386697999958,1409.8386697999958,0.014669700001832098,0.014669700001832098,0.02002960001118481,0.05468490000930615,0.06166400000802241,0.10329070000443608,0.11025500000687316,1.0129333000077168,1413.3315934999991,1417.7550861000054,,,,,,,,,,,,,,,,,,,,,,,,,,,,,11,B,2023-12-08_10h00.09.841,gca_avoidance_task,2022.2.4,143.99553038158228,
positions.xlsx,stimuli.xlsx,stimuli/Social2.png,stimuli/Social1.png,stimuli/Nonsocial1.png,stimuli/Nonsocial2.png,,"(-0.7, -0.5)",cs_plus_ns,,,,,0,0,0,0,,,,,,,,,2,11,43,9,,,,,,,,,,,,,,,,,,,,,,,,,,,,,,,,,,,,,,,,,,,,,,,,,,,,,,,,,,1418.2619688999985,1419.5813617999956,1417.7550861000054,1419.5813617999956,1419.5813617999956,1419.5813617999956,0.008444899998721667,0.020184199995128438,185,none,0,,,1424.581170199992,1424.581170199992,0.014199400000507012,0.014199400000507012,0.019894500001100823,0.0545715000043856,0.061544900003354996,0.10321339999791235,0.11010950000490993,1.0129000000015367,1428.074124199993,1431.9072736999951,,,,,,,,,,,,,,,,,,,,,,,,,,,,,11,B,2023-12-08_10h00.09.841,gca_avoidance_task,2022.2.4,143.99553038158228,
positions.xlsx,stimuli.xlsx,stimuli/Social2.png,stimuli/Social1.png,stimuli/Nonsocial1.png,stimuli/Nonsocial2.png,,"(-0.7, -0.5)",cs_minus_s,,,,,0,0,0,0,,,,,,,,,2,12,44,5,,,,,,,,,,,,,,,,,,,,,,,,,,,,,,,,,,,,,,,,,,,,,,,,,,,,,,,,,,1432.4141958999971,1433.9627555000043,1431.9072736999951,1433.9627555000043,1433.9627555000043,1433.9627555000043,0.006366699992213398,0.01311590000113938,190,reward,1,[0.4380261000042083],[0.43802999999024905],1434.4071526000043,1434.4071526000043,0.007471599994460121,0.007471599994460121,0.018246100007672794,0.052934100007405505,0.05994970000756439,0.10153010000067297,0.10852049999812152,1.004287599993404,1437.9001439999993,1442.0457473999995,,,,,,,,,,,,,,,,,,,,,,,,,,,,,11,B,2023-12-08_10h00.09.841,gca_avoidance_task,2022.2.4,143.99553038158228,
positions.xlsx,stimuli.xlsx,stimuli/Social2.png,stimuli/Social1.png,stimuli/Nonsocial1.png,stimuli/Nonsocial2.png,,"(0.7, -0.5)",cs_plus_ns,,,,,0,0,0,0,,,,,,,,,2,13,45,11,,,,,,,,,,,,,,,,,,,,,,,,,,,,,,,,,,,,,,,,,,,,,,,,,,,,,,,,,,1442.552651399994,1444.3164782999957,1442.0457473999995,1444.3164782999957,1444.3164782999957,1444.3164782999957,0.006918099999893457,0.01351740000245627,190,none,0,,,1449.3232541000034,1449.3232541000034,0.014358100001118146,0.014358100001118146,0.0202696000051219,0.05495760000485461,0.06188169999222737,0.10353559999202844,0.1105119999992894,1.013238999992609,1452.8161696000025,1456.4549316000048,,,,,,,,,,,,,,,,,,,,,,,,,,,,,11,B,2023-12-08_10h00.09.841,gca_avoidance_task,2022.2.4,143.99553038158228,
positions.xlsx,stimuli.xlsx,stimuli/Social2.png,stimuli/Social1.png,stimuli/Nonsocial1.png,stimuli/Nonsocial2.png,,"(-0.7, 0.5)",cs_minus_s,,,,,0,0,0,0,,,,,,,,,2,14,46,4,,,,,,,,,,,,,,,,,,,,,,,,,,,,,,,,,,,,,,,,,,,,,,,,,,,,,,,,,,1456.9617939000018,1458.718658400001,1456.4549316000048,1458.718658400001,1458.718658400001,1458.718658400001,0.00646200000483077,0.012860700007877313,195,reward,1,[0.5420092999993358],[0.542013099999167],1459.2673103999987,1459.2673103999987,0.007438300002831966,0.007438300002831966,0.01822129999345634,0.052876799993100576,0.059849199999007396,0.10153309999441262,0.10845590000099037,1.0042305999959353,1462.7602337999997,1466.405890199996,,,,,,,,,,,,,,,,,,,,,,,,,,,,,11,B,2023-12-08_10h00.09.841,gca_avoidance_task,2022.2.4,143.99553038158228,
positions.xlsx,stimuli.xlsx,stimuli/Social2.png,stimuli/Social1.png,stimuli/Nonsocial1.png,stimuli/Nonsocial2.png,,"(-0.7, -0.5)",cs_minus_ns,,,,,0,0,0,0,,,,,,,,,2,15,47,13,,,,,,,,,,,,,,,,,,,,,,,,,,,,,,,,,,,,,,,,,,,,,,,,,,,,,,,,,,1466.912799800004,1468.4127367000037,1466.405890199996,1468.4127367000037,1468.4127367000037,1468.4127367000037,0.006201900003361516,0.013145800010534003,200,reward,1,[0.6529805000027409],[0.6529843000025721],1469.0724665000016,1469.0724665000016,0.0077243000123417005,0.0077243000123417005,0.01839490000566002,0.05307360000733752,0.05996540001069661,0.10164400000940077,0.10862790000101086,1.0044147000007797,1472.5654300000024,1476.7458228000032,,,,,,,,,,,,,,,,,,,,,,,,,,,,,11,B,2023-12-08_10h00.09.841,gca_avoidance_task,2022.2.4,143.99553038158228,
positions.xlsx,stimuli.xlsx,stimuli/Social2.png,stimuli/Social1.png,stimuli/Nonsocial1.png,stimuli/Nonsocial2.png,,"(-0.7, -0.5)",cs_minus_s,,,,,0,0,0,0,,,,,,,,,3,0,48,5,,,,,,,,,,,,,,,,,,,,,,,,,,,,,,,,,,,,,,,,,,,,,,,,,,,,,,,,,,1477.252701599995,1478.5790113999974,1476.7458228000032,1478.5790113999974,1478.5790113999974,1478.5790113999974,0.005994100007228553,0.013537700011511333,205,reward,1,[0.458910500005004],[0.45891430000483524],1479.0442856000009,1479.0442856000009,0.006764000005205162,0.006764000005205162,0.018541400000685826,0.05322250000608619,0.06016500000259839,0.10186280000198167,0.10875769999984186,1.0046019000001252,1482.5372341000038,1486.148163299993,,,,,,,,,,,,,,,,,,,,,,,,,,,,,11,B,2023-12-08_10h00.09.841,gca_avoidance_task,2022.2.4,143.99553038158228,
positions.xlsx,stimuli.xlsx,stimuli/Social2.png,stimuli/Social1.png,stimuli/Nonsocial1.png,stimuli/Nonsocial2.png,,"(-0.7, 0.5)",cs_plus_ns,,,,,0,0,0,0,,,,,,,,,3,1,49,8,,,,,,,,,,,,,,,,,,,,,,,,,,,,,,,,,,,,,,,,,,,,,,,,,,,,,,,,,,1486.6550839999982,1487.7245322999952,1486.148163299993,1487.7245322999952,1487.7245322999952,1487.7245322999952,0.0071007999940775335,0.01322539999091532,205,none,0,,,1492.7381597000058,1492.7381597000058,0.015202199996565469,0.015202199996565469,0.02680579999287147,0.05450129999371711,0.06151129999489058,0.10322479999740608,0.11012659998959862,1.0128035999950953,1496.2241756000003,1500.217085700002,,,,,,,,,,,,,,,,,,,,,,,,,,,,,11,B,2023-12-08_10h00.09.841,gca_avoidance_task,2022.2.4,143.99553038158228,
positions.xlsx,stimuli.xlsx,stimuli/Social2.png,stimuli/Social1.png,stimuli/Nonsocial1.png,stimuli/Nonsocial2.png,,"(0.7, -0.5)",cs_plus_ns,,,,,0,0,0,0,,,,,,,,,3,2,50,11,,,,,,,,,,,,,,,,,,,,,,,,,,,,,,,,,,,,,,,,,,,,,,,,,,,,,,,,,,1500.7239699000056,1502.064216999992,1500.217085700002,1502.064216999992,1502.064216999992,1502.064216999992,0.007507199989049695,0.013085799990221858,205,none,0,,,1507.0709437000041,1507.0709437000041,0.014715799989062361,0.014715799989062361,0.019833300000755116,0.054524499995750375,0.06148019999091048,0.10313760000281036,0.11015809999662451,1.0127897999918787,1510.5639401999942,1514.4387748000008,,,,,,,,,,,,,,,,,,,,,,,,,,,,,11,B,2023-12-08_10h00.09.841,gca_avoidance_task,2022.2.4,143.99553038158228,
positions.xlsx,stimuli.xlsx,stimuli/Social2.png,stimuli/Social1.png,stimuli/Nonsocial1.png,stimuli/Nonsocial2.png,,"(-0.7, 0.5)",cs_minus_s,,,,,0,0,0,0,,,,,,,,,3,3,51,4,,,,,,,,,,,,,,,,,,,,,,,,,,,,,,,,,,,,,,,,,,,,,,,,,,,,,,,,,,1514.9456252999953,1516.341401800004,1514.4387748000008,1516.341401800004,1516.341401800004,1516.341401800004,0.0065108999988297,0.012960699998075143,210,reward,1,[0.5486270999972476],[0.5486307999963174],1516.8969478999934,1516.8969478999934,0.0071813999966252595,0.0071813999966252595,0.018415200000163168,0.05314689999795519,0.060134500003186986,0.10174120000738185,0.10867940000025555,1.004515900000115,1520.3899075999943,1524.3064414999972,,,,,,,,,,,,,,,,,,,,,,,,,,,,,11,B,2023-12-08_10h00.09.841,gca_avoidance_task,2022.2.4,143.99553038158228,
positions.xlsx,stimuli.xlsx,stimuli/Social2.png,stimuli/Social1.png,stimuli/Nonsocial1.png,stimuli/Nonsocial2.png,,"(0.7, 0.5)",cs_plus_ns,,,,,0,0,0,0,,,,,,,,,3,4,52,10,,,,,,,,,,,,,,,,,,,,,,,,,,,,,,,,,,,,,,,,,,,,,,,,,,,,,,,,,,1524.813306600001,1526.0146364999964,1524.3064414999972,1526.0146364999964,1526.0146364999964,1526.0146364999964,0.006625699999858625,0.013084999998682179,210,shock,1,[0.21546009999292437],[0.21546379999199416],1526.2368972999975,1526.2368972999975,0.008097300000372343,0.008097300000372343,0.01851130000432022,0.05314469999575522,0.06011999999464024,0.1017747000005329,0.1087658000033116,1.004517699999269,1529.7298422000022,1533.7435772000026,,,,,,,,,,,,,,,,,,,,,,,,,,,,,11,B,2023-12-08_10h00.09.841,gca_avoidance_task,2022.2.4,143.99553038158228,
positions.xlsx,stimuli.xlsx,stimuli/Social2.png,stimuli/Social1.png,stimuli/Nonsocial1.png,stimuli/Nonsocial2.png,,"(0.7, -0.5)",cs_minus_s,,,,,0,0,0,0,,,,,,,,,3,5,53,7,,,,,,,,,,,,,,,,,,,,,,,,,,,,,,,,,,,,,,,,,,,,,,,,,,,,,,,,,,1534.2504265000025,1535.9865036999981,1533.7435772000026,1535.9865036999981,1535.9865036999981,1535.9865036999981,0.005963199990219437,0.013522399996872991,215,reward,1,[0.7920850999944378],[0.7921015000029001],1536.7851020999951,1536.7851020999951,0.006824099997174926,0.006824099997174926,0.018500899997889064,0.05314419999194797,0.06011219999345485,0.10173999999824446,0.10872720000043046,1.0045238999882713,1540.277991199997,1543.986199299994,,,,,,,,,,,,,,,,,,,,,,,,,,,,,11,B,2023-12-08_10h00.09.841,gca_avoidance_task,2022.2.4,143.99553038158228,
positions.xlsx,stimuli.xlsx,stimuli/Social2.png,stimuli/Social1.png,stimuli/Nonsocial1.png,stimuli/Nonsocial2.png,,"(0.7, -0.5)",cs_plus_s,,,,,0,0,0,0,,,,,,,,,3,6,54,3,,,,,,,,,,,,,,,,,,,,,,,,,,,,,,,,,,,,,,,,,,,,,,,,,,,,,,,,,,1544.4930937000026,1545.7707844999968,1543.986199299994,1545.7707844999968,1545.7707844999968,1545.7707844999968,0.005781100000604056,0.01319599999987986,215,none,0,,,1550.7775509000057,1550.7775509000057,0.013803599998936988,0.013803599998936988,0.01992759999120608,0.054640000002109446,0.06159119999210816,0.10322409999207594,0.11019609999493696,1.012925599992741,1554.2705352000048,1558.3884328999993,,,,,,,,,,,,,,,,,,,,,,,,,,,,,11,B,2023-12-08_10h00.09.841,gca_avoidance_task,2022.2.4,143.99553038158228,
positions.xlsx,stimuli.xlsx,stimuli/Social2.png,stimuli/Social1.png,stimuli/Nonsocial1.png,stimuli/Nonsocial2.png,,"(-0.7, -0.5)",cs_minus_ns,,,,,0,0,0,0,,,,,,,,,3,7,55,13,,,,,,,,,,,,,,,,,,,,,,,,,,,,,,,,,,,,,,,,,,,,,,,,,,,,,,,,,,1558.8953156999924,1560.2563482999976,1558.3884328999993,1560.2563482999976,1560.2563482999976,1560.2563482999976,0.006966300003114156,0.013128100006724708,220,reward,1,[0.6321081000060076],[0.6321119000058388],1560.8952547999943,1560.8952547999943,0.007714199993642978,0.007714199993642978,0.018413700003293343,0.05304880000767298,0.06000800000037998,0.10171940000145696,0.10861389999627136,1.0044153000053484,1564.3881729999994,1568.374168299997,,,,,,,,,,,,,,,,,,,,,,,,,,,,,11,B,2023-12-08_10h00.09.841,gca_avoidance_task,2022.2.4,143.99553038158228,
positions.xlsx,stimuli.xlsx,stimuli/Social2.png,stimuli/Social1.png,stimuli/Nonsocial1.png,stimuli/Nonsocial2.png,,"(-0.7, 0.5)",cs_minus_ns,,,,,0,0,0,0,,,,,,,,,3,8,56,12,,,,,,,,,,,,,,,,,,,,,,,,,,,,,,,,,,,,,,,,,,,,,,,,,,,,,,,,,,1568.8810252999974,1570.7420681999938,1568.374168299997,1570.7420681999938,1570.7420681999938,1570.7420681999938,0.007030499997199513,0.013400399999227375,225,reward,1,[0.6048405000037747],[0.604844100002083],1571.3531487,1571.3531487,0.006888100004289299,0.006888100004289299,0.018316500005312264,0.052963000009185635,0.05992759999935515,0.10158899999805726,0.1085705000004964,1.0043232000025455,1574.8461247999949,1578.8876397999993,,,,,,,,,,,,,,,,,,,,,,,,,,,,,11,B,2023-12-08_10h00.09.841,gca_avoidance_task,2022.2.4,143.99553038158228,
positions.xlsx,stimuli.xlsx,stimuli/Social2.png,stimuli/Social1.png,stimuli/Nonsocial1.png,stimuli/Nonsocial2.png,,"(-0.7, 0.5)",cs_plus_s,,,,,0,0,0,0,,,,,,,,,3,9,57,0,,,,,,,,,,,,,,,,,,,,,,,,,,,,,,,,,,,,,,,,,,,,,,,,,,,,,,,,,,1579.394524599993,1580.6513749000005,1578.8876397999993,1580.6513749000005,1580.6513749000005,1580.6513749000005,0.006106300003011711,0.013236300001153722,225,none,0,,,1585.6581911999965,1585.6581911999965,0.013833200006047264,0.013833200006047264,0.02005930000450462,0.05470560000685509,0.061656999998376705,0.10334729999885894,0.1103068000084022,1.0129949999973178,1589.151079599993,1592.7620513000002,,,,,,,,,,,,,,,,,,,,,,,,,,,,,11,B,2023-12-08_10h00.09.841,gca_avoidance_task,2022.2.4,143.99553038158228,
positions.xlsx,stimuli.xlsx,stimuli/Social2.png,stimuli/Social1.png,stimuli/Nonsocial1.png,stimuli/Nonsocial2.png,,"(0.7, 0.5)",cs_minus_ns,,,,,0,0,0,0,,,,,,,,,3,10,58,14,,,,,,,,,,,,,,,,,,,,,,,,,,,,,,,,,,,,,,,,,,,,,,,,,,,,,,,,,,1593.2689365999977,1595.192489699999,1592.7620513000002,1595.192489699999,1595.192489699999,1595.192489699999,0.006365299996105023,0.01314029999775812,230,reward,1,[0.49312539999664295],[0.49312909999571275],1595.6924317999947,1595.6924317999947,0.00810000000637956,0.00810000000637956,0.018522400001529604,0.05318339999939781,0.0601609000004828,0.10184709999884944,0.10881229999358766,1.0045290999987628,1599.1854518000036,1603.6852549000032,,,,,,,,,,,,,,,,,,,,,,,,,,,,,11,B,2023-12-08_10h00.09.841,gca_avoidance_task,2022.2.4,143.99553038158228,
positions.xlsx,stimuli.xlsx,stimuli/Social2.png,stimuli/Social1.png,stimuli/Nonsocial1.png,stimuli/Nonsocial2.png,,"(-0.7, -0.5)",cs_plus_s,,,,,0,0,0,0,,,,,,,,,3,11,59,1,,,,,,,,,,,,,,,,,,,,,,,,,,,,,,,,,,,,,,,,,,,,,,,,,,,,,,,,,,1604.1920978999988,1605.7823459999927,1603.6852549000032,1605.7823459999927,1605.7823459999927,1605.7823459999927,0.005559900004300289,0.01302169999689795,230,none,0,,,1610.789099600006,1610.789099600006,0.013357100004213862,0.013357100004213862,0.019820900008198805,0.05447980000462849,0.06144920000224374,0.10307579999789596,0.11003740000887774,1.012767200008966,1614.282045400003,1618.531913999992,,,,,,,,,,,,,,,,,,,,,,,,,,,,,11,B,2023-12-08_10h00.09.841,gca_avoidance_task,2022.2.4,143.99553038158228,
positions.xlsx,stimuli.xlsx,stimuli/Social2.png,stimuli/Social1.png,stimuli/Nonsocial1.png,stimuli/Nonsocial2.png,,"(0.7, 0.5)",cs_plus_s,,,,,0,0,0,0,,,,,,,,,3,12,60,2,,,,,,,,,,,,,,,,,,,,,,,,,,,,,,,,,,,,,,,,,,,,,,,,,,,,,,,,,,1619.038772800006,1621.0248165999947,1618.531913999992,1621.0248165999947,1621.0248165999947,1621.0248165999947,0.006057400009012781,0.013205500014009885,230,none,0,,,1626.0315352000034,1626.0315352000034,0.013501000008545816,0.013501000008545816,0.019941800012020394,0.05462780001107603,0.061597700012498535,0.1032382000121288,0.11016520000703167,1.0129789000056917,1629.5245066999923,1634.0243295999971,,,,,,,,,,,,,,,,,,,,,,,,,,,,,11,B,2023-12-08_10h00.09.841,gca_avoidance_task,2022.2.4,143.99553038158228,
positions.xlsx,stimuli.xlsx,stimuli/Social2.png,stimuli/Social1.png,stimuli/Nonsocial1.png,stimuli/Nonsocial2.png,,"(0.7, 0.5)",cs_minus_s,,,,,0,0,0,0,,,,,,,,,3,13,61,6,,,,,,,,,,,,,,,,,,,,,,,,,,,,,,,,,,,,,,,,,,,,,,,,,,,,,,,,,,1634.5312183999922,1636.4755888999935,1634.0243295999971,1636.4755888999935,1636.4755888999935,1636.4755888999935,0.005991900005028583,0.013146600002073683,235,reward,1,[0.7222839000023669],[0.7222875000006752],1637.2047844000044,1637.2047844000044,0.0066476000065449625,0.0066476000065449625,0.018417600003886037,0.05305279999447521,0.05997649999335408,0.10165630000119563,0.10857650000252761,1.0043906000064453,1640.6976474999974,1644.628127899996,,,,,,,,,,,,,,,,,,,,,,,,,,,,,11,B,2023-12-08_10h00.09.841,gca_avoidance_task,2022.2.4,143.99553038158228,
positions.xlsx,stimuli.xlsx,stimuli/Social2.png,stimuli/Social1.png,stimuli/Nonsocial1.png,stimuli/Nonsocial2.png,,"(-0.7, -0.5)",cs_plus_ns,,,,,0,0,0,0,,,,,,,,,3,14,62,9,,,,,,,,,,,,,,,,,,,,,,,,,,,,,,,,,,,,,,,,,,,,,,,,,,,,,,,,,,1645.1349595999927,1647.037637699992,1644.628127899996,1647.037637699992,1647.037637699992,1647.037637699992,0.006475499991211109,0.013023099993006326,235,none,0,,,1652.0444270000007,1652.0444270000007,0.013830700001562946,0.013830700001562946,0.019862500004819594,0.05455469999287743,0.06147810000402387,0.10307870000542607,0.11008790000050794,1.012816999995266,1655.5373775000044,1659.6274989999947,,,,,,,,,,,,,,,,,,,,,,,,,,,,,11,B,2023-12-08_10h00.09.841,gca_avoidance_task,2022.2.4,143.99553038158228,
positions.xlsx,stimuli.xlsx,stimuli/Social2.png,stimuli/Social1.png,stimuli/Nonsocial1.png,stimuli/Nonsocial2.png,,"(0.7, -0.5)",cs_minus_ns,,,,,0,0,0,0,,,,,,,,,3,15,63,15,,,,,,,,,,,,,,,,,,,,,,,,,,,,,,,,,,,,,,,,,,,,,,,,,,,,,,,,,,1660.134388999999,1661.516266999999,1659.6274989999947,1661.516266999999,1661.516266999999,1661.516266999999,0.006477700007962994,0.01307210000231862,240,reward,1,[0.548643300004187],[0.5486469000024954],1662.071801500002,1662.071801500002,0.007440499990480021,0.007440499990480021,0.018219999998109415,0.05292419999022968,0.05994320000172593,0.10150859999703243,0.108474099994055,1.0042830999882426,1665.564734899992,1670.009043099999,,,,,,,,,,,,,,,,,,,,,,,,,,,,,11,B,2023-12-08_10h00.09.841,gca_avoidance_task,2022.2.4,143.99553038158228,
positions.xlsx,stimuli.xlsx,stimuli/Social2.png,stimuli/Social1.png,stimuli/Nonsocial1.png,stimuli/Nonsocial2.png,,"(0.7, -0.5)",cs_minus_s,,,,,0,0,0,0,,,,,,,,,4,0,64,7,,,,,,,,,,,,,,,,,,,,,,,,,,,,,,,,,,,,,,,,,,,,,,,,,,,,,,,,,,1670.5159099000011,1671.6408995999955,1670.009043099999,1671.6408995999955,1671.6408995999955,1671.6408995999955,0.00575830000161659,0.013172599996323697,245,reward,1,[0.5625990999978967],[0.5697101999976439],1672.2172831999924,1672.2172831999924,0.007198999999673106,0.007198999999673106,0.01848130000871606,0.05313300000852905,0.060057700000470504,0.10170470000593923,0.10868900000059512,1.004445600003237,1675.710242999994,1680.0433960999944,,,,,,,,,,,,,,,,,,,,,,,,,,,,,11,B,2023-12-08_10h00.09.841,gca_avoidance_task,2022.2.4,143.99553038158228,
positions.xlsx,stimuli.xlsx,stimuli/Social2.png,stimuli/Social1.png,stimuli/Nonsocial1.png,stimuli/Nonsocial2.png,,"(0.7, 0.5)",cs_plus_s,,,,,0,0,0,0,,,,,,,,,4,1,65,2,,,,,,,,,,,,,,,,,,,,,,,,,,,,,,,,,,,,,,,,,,,,,,,,,,,,,,,,,,1680.5502351000032,1682.2654691999924,1680.0433960999944,1682.2654691999924,1682.2654691999924,1682.2654691999924,0.0058428000047570094,0.013229800009867176,245,none,0,,,1687.272257100005,1687.272257100005,0.01373240000975784,0.01373240000975784,0.01999709999654442,0.05463900000904687,0.061620000007678755,0.10322990000713617,0.11021159999654628,1.012912400008645,1690.7651671000058,1694.4803322999942,,,,,,,,,,,,,,,,,,,,,,,,,,,,,11,B,2023-12-08_10h00.09.841,gca_avoidance_task,2022.2.4,143.99553038158228,
positions.xlsx,stimuli.xlsx,stimuli/Social2.png,stimuli/Social1.png,stimuli/Nonsocial1.png,stimuli/Nonsocial2.png,,"(0.7, -0.5)",cs_plus_s,,,,,0,0,0,0,,,,,,,,,4,2,66,3,,,,,,,,,,,,,,,,,,,,,,,,,,,,,,,,,,,,,,,,,,,,,,,,,,,,,,,,,,1694.9871828000032,1696.0218746000028,1694.4803322999942,1696.0218746000028,1696.0218746000028,1696.0218746000028,0.006569400007720105,0.013226399998529814,245,none,0,,,1701.028582400002,1701.028582400002,0.013892500006477349,0.013892500006477349,0.0198557000112487,0.054580199997872114,0.06152480001037475,0.10316140000941232,0.11014470001100563,1.012871200000518,1704.5215772999945,1708.0909006000002,,,,,,,,,,,,,,,,,,,,,,,,,,,,,11,B,2023-12-08_10h00.09.841,gca_avoidance_task,2022.2.4,143.99553038158228,
positions.xlsx,stimuli.xlsx,stimuli/Social2.png,stimuli/Social1.png,stimuli/Nonsocial1.png,stimuli/Nonsocial2.png,,"(0.7, 0.5)",cs_plus_ns,,,,,0,0,0,0,,,,,,,,,4,3,67,10,,,,,,,,,,,,,,,,,,,,,,,,,,,,,,,,,,,,,,,,,,,,,,,,,,,,,,,,,,1708.597747199994,1709.7713504999992,1708.0909006000002,1709.7713504999992,1709.7713504999992,1709.7713504999992,0.006354299999657087,0.012817800001357682,245,none,0,,,1714.778066999992,1714.778066999992,0.014056200001505204,0.014056200001505204,0.019540699999197386,0.05423899999004789,0.061216799993417226,0.10282749999896623,0.10981559999345336,1.012596400003531,1718.271053000004,1722.1458692000015,,,,,,,,,,,,,,,,,,,,,,,,,,,,,11,B,2023-12-08_10h00.09.841,gca_avoidance_task,2022.2.4,143.99553038158228,
positions.xlsx,stimuli.xlsx,stimuli/Social2.png,stimuli/Social1.png,stimuli/Nonsocial1.png,stimuli/Nonsocial2.png,,"(-0.7, -0.5)",cs_minus_ns,,,,,0,0,0,0,,,,,,,,,4,4,68,13,,,,,,,,,,,,,,,,,,,,,,,,,,,,,,,,,,,,,,,,,,,,,,,,,,,,,,,,,,1722.6527666000038,1724.1874518999975,1722.1458692000015,1724.1874518999975,1724.1874518999975,1724.1874518999975,0.006474399997387081,0.013288099988130853,250,reward,1,[0.7086698999919463],[0.708673799992539],1724.9026770000055,1724.9026770000055,0.007816700002877042,0.007816700002877042,0.017949799992493354,0.052630499994847924,0.05958400000235997,0.10123499999463093,0.10819210000045132,1.0039872999914223,1728.3956539999926,1732.1107735999976,,,,,,,,,,,,,,,,,,,,,,,,,,,,,11,B,2023-12-08_10h00.09.841,gca_avoidance_task,2022.2.4,143.99553038158228,
positions.xlsx,stimuli.xlsx,stimuli/Social2.png,stimuli/Social1.png,stimuli/Nonsocial1.png,stimuli/Nonsocial2.png,,"(-0.7, 0.5)",cs_minus_s,,,,,0,0,0,0,,,,,,,,,4,5,69,4,,,,,,,,,,,,,,,,,,,,,,,,,,,,,,,,,,,,,,,,,,,,,,,,,,,,,,,,,,1732.6176548999938,1734.346757899999,1732.1107735999976,1734.346757899999,1734.346757899999,1734.346757899999,0.0067546000063885,0.01322259999869857,255,reward,1,[0.6599242000083905],[0.6599276000051759],1735.0134051999921,1735.0134051999921,0.007104399992385879,0.007104399992385879,0.018547200001194142,0.05315629999677185,0.06011340000259224,0.10182139999233186,0.10876429999188986,1.0045463999995263,1738.5063608000055,1742.6172955999937,,,,,,,,,,,,,,,,,,,,,,,,,,,,,11,B,2023-12-08_10h00.09.841,gca_avoidance_task,2022.2.4,143.99553038158228,
positions.xlsx,stimuli.xlsx,stimuli/Social2.png,stimuli/Social1.png,stimuli/Nonsocial1.png,stimuli/Nonsocial2.png,,"(-0.7, 0.5)",cs_plus_s,,,,,0,0,0,0,,,,,,,,,4,6,70,0,,,,,,,,,,,,,,,,,,,,,,,,,,,,,,,,,,,,,,,,,,,,,,,,,,,,,,,,,,1743.1241747000022,1744.2422305999935,1742.6172955999937,1744.2422305999935,1744.2422305999935,1744.2422305999935,0.005944400007138029,0.012999400001717731,255,shock,1,[0.250037899997551],[0.25004169999738224],1744.499123200003,1744.499123200003,0.007454899998265319,0.007454899998265319,0.018227599997771904,0.052903699994203635,0.05987749999621883,0.1015493000013521,0.10852599999634549,1.0042726999963634,1747.9921165999986,1751.8044603000017,,,,,,,,,,,,,,,,,,,,,,,,,,,,,11,B,2023-12-08_10h00.09.841,gca_avoidance_task,2022.2.4,143.99553038158228,
positions.xlsx,stimuli.xlsx,stimuli/Social2.png,stimuli/Social1.png,stimuli/Nonsocial1.png,stimuli/Nonsocial2.png,,"(-0.7, -0.5)",cs_minus_s,,,,,0,0,0,0,,,,,,,,,4,7,71,5,,,,,,,,,,,,,,,,,,,,,,,,,,,,,,,,,,,,,,,,,,,,,,,,,,,,,,,,,,1752.3113223999972,1753.665447099993,1751.8044603000017,1753.665447099993,1753.665447099993,1753.665447099993,0.006033799989381805,0.013296799996169284,260,reward,1,[0.6600059999909718],[0.6600094999885187],1754.3321180000057,1754.3321180000057,0.008186699997168034,0.008186699997168034,0.018133199992007576,0.05281769999419339,0.059772399996290915,0.10139549999439623,0.10835739999311045,1.004150099994149,1757.8250425000006,1761.7276816999947,,,,,,,,,,,,,,,,,,,,,,,,,,,,,11,B,2023-12-08_10h00.09.841,gca_avoidance_task,2022.2.4,143.99553038158228,
