posFile,stimFile,cs_plus_s,cs_minus_s,cs_plus_ns,cs_minus_ns,stimtype,position,trialtype,trials_threshold.thisRepN,trials_threshold.thisTrialN,trials_threshold.thisN,trials_threshold.thisIndex,blocks.thisRepN,blocks.thisTrialN,blocks.thisN,blocks.thisIndex,ratingtrials1.thisRepN,ratingtrials1.thisTrialN,ratingtrials1.thisN,ratingtrials1.thisIndex,learning_trials.thisRepN,learning_trials.thisTrialN,learning_trials.thisN,learning_trials.thisIndex,trials.thisRepN,trials.thisTrialN,trials.thisN,trials.thisIndex,ratingtrials2.thisRepN,ratingtrials2.thisTrialN,ratingtrials2.thisN,ratingtrials2.thisIndex,testtrials.thisRepN,testtrials.thisTrialN,testtrials.thisN,testtrials.thisIndex,ratingtrials3.thisRepN,ratingtrials3.thisTrialN,ratingtrials3.thisN,ratingtrials3.thisIndex,textStart.started,sliderPainT.response,sliderPainT.rt,textStartExp.started,imageRating.started,sliderStim.response,sliderStim.rt,textStartTask.started,image.started,score,outcome,roi.numLooks,roi.timesOn,roi.timesOff,imageFeedback.started,sliderPain.response,sliderPain.rt,textTestInstr.started,imageTest.started,roiTest.numLooks,roiTest.timesOn,roiTest.timesOff,participant,group,date,expName,psychopyVersion,frameRate,
,,,,,,,,,0,0,0,0,,,,,,,,,,,,,,,,,,,,,,,,,,,,,17.424280599923804,None,None,,,,,,,,,,,,,,,,,,,,40,D,2023-12-20_14h41.13.280,gca_avoidance_task,2022.2.4,144.09408761352927,
,,,,,,,,,1,0,1,0,,,,,,,,,,,,,,,,,,,,,,,,,,,,,,None,None,,,,,,,,,,,,,,,,,,,,40,D,2023-12-20_14h41.13.280,gca_avoidance_task,2022.2.4,144.09408761352927,
,,,,,,,,,2,0,2,0,,,,,,,,,,,,,,,,,,,,,,,,,,,,,,0.0,21.572720600059256,,,,,,,,,,,,,,,,,,,,40,D,2023-12-20_14h41.13.280,gca_avoidance_task,2022.2.4,144.09408761352927,
,,,,,,,,,3,0,3,0,,,,,,,,,,,,,,,,,,,,,,,,,,,,,,1.0,5.945799699984491,,,,,,,,,,,,,,,,,,,,40,D,2023-12-20_14h41.13.280,gca_avoidance_task,2022.2.4,144.09408761352927,
,,,,,,,,,4,0,4,0,,,,,,,,,,,,,,,,,,,,,,,,,,,,,,5.0,19.215599700110033,,,,,,,,,,,,,,,,,,,,40,D,2023-12-20_14h41.13.280,gca_avoidance_task,2022.2.4,144.09408761352927,
,,,,,,,,,5,0,5,0,,,,,,,,,,,,,,,,,,,,,,,,,,,,,,9.0,2.855302599957213,,,,,,,,,,,,,,,,,,,,40,D,2023-12-20_14h41.13.280,gca_avoidance_task,2022.2.4,144.09408761352927,
,,,,,,,,,6,0,6,0,,,,,,,,,,,,,,,,,,,,,,,,,,,,,,3.0,10.763052700087428,,,,,,,,,,,,,,,,,,,,40,D,2023-12-20_14h41.13.280,gca_avoidance_task,2022.2.4,144.09408761352927,
,,,,,,,,,7,0,7,0,,,,,,,,,,,,,,,,,,,,,,,,,,,,,,4.0,4.298643899848685,,,,,,,,,,,,,,,,,,,,40,D,2023-12-20_14h41.13.280,gca_avoidance_task,2022.2.4,144.09408761352927,
,,,,,,,,,8,0,8,0,,,,,,,,,,,,,,,,,,,,,,,,,,,,,,5.0,3.5115509999450296,,,,,,,,,,,,,,,,,,,,40,D,2023-12-20_14h41.13.280,gca_avoidance_task,2022.2.4,144.09408761352927,
,,,,,,,,,9,0,9,0,,,,,,,,,,,,,,,,,,,,,,,,,,,,,,9.0,1.7027592998929322,,,,,,,,,,,,,,,,,,,,40,D,2023-12-20_14h41.13.280,gca_avoidance_task,2022.2.4,144.09408761352927,
,,,,,,,,,10,0,10,0,,,,,,,,,,,,,,,,,,,,,,,,,,,,,,9.0,1.0289020000491291,,,,,,,,,,,,,,,,,,,,40,D,2023-12-20_14h41.13.280,gca_avoidance_task,2022.2.4,144.09408761352927,
,,,,,,,,,11,0,11,0,,,,,,,,,,,,,,,,,,,,,,,,,,,,,,7.0,2.442338899942115,,,,,,,,,,,,,,,,,,,,40,D,2023-12-20_14h41.13.280,gca_avoidance_task,2022.2.4,144.09408761352927,
,,,,,,,,,12,0,12,0,,,,,,,,,,,,,,,,,,,,,,,,,,,,,,3.0,3.2386614000424743,,,,,,,,,,,,,,,,,,,,40,D,2023-12-20_14h41.13.280,gca_avoidance_task,2022.2.4,144.09408761352927,
,,,,,,,,,13,0,13,0,,,,,,,,,,,,,,,,,,,,,,,,,,,,,,5.0,2.074761600000784,,,,,,,,,,,,,,,,,,,,40,D,2023-12-20_14h41.13.280,gca_avoidance_task,2022.2.4,144.09408761352927,
,,,,,,,,,14,0,14,0,,,,,,,,,,,,,,,,,,,,,,,,,,,,,,9.0,1.4682885999791324,,,,,,,,,,,,,,,,,,,,40,D,2023-12-20_14h41.13.280,gca_avoidance_task,2022.2.4,144.09408761352927,
,,,,,,,,,15,0,15,0,,,,,,,,,,,,,,,,,,,,,,,,,,,,,,8.0,1.9038143998477608,,,,,,,,,,,,,,,,,,,,40,D,2023-12-20_14h41.13.280,gca_avoidance_task,2022.2.4,144.09408761352927,
,,,,,,,,,16,0,16,0,,,,,,,,,,,,,,,,,,,,,,,,,,,,,,2.0,2.963162000058219,,,,,,,,,,,,,,,,,,,,40,D,2023-12-20_14h41.13.280,gca_avoidance_task,2022.2.4,144.09408761352927,
,,,,,,,,,17,0,17,0,,,,,,,,,,,,,,,,,,,,,,,,,,,,,,4.0,3.843353800009936,,,,,,,,,,,,,,,,,,,,40,D,2023-12-20_14h41.13.280,gca_avoidance_task,2022.2.4,144.09408761352927,
,,,,,,,,,18,0,18,0,,,,,,,,,,,,,,,,,,,,,,,,,,,,,,6.0,2.127224100055173,,,,,,,,,,,,,,,,,,,,40,D,2023-12-20_14h41.13.280,gca_avoidance_task,2022.2.4,144.09408761352927,
,,,,,,,,,19,0,19,0,,,,,,,,,,,,,,,,,,,,,,,,,,,,,,9.0,1.3448906999547035,,,,,,,,,,,,,,,,,,,,40,D,2023-12-20_14h41.13.280,gca_avoidance_task,2022.2.4,144.09408761352927,
,,,,,,,,,20,0,20,0,,,,,,,,,,,,,,,,,,,,,,,,,,,,,,6.0,1.8764181002043188,,,,,,,,,,,,,,,,,,,,40,D,2023-12-20_14h41.13.280,gca_avoidance_task,2022.2.4,144.09408761352927,
,,,,,,,,,21,0,21,0,,,,,,,,,,,,,,,,,,,,,,,,,,,,,,9.0,1.9663373997900635,,,,,,,,,,,,,,,,,,,,40,D,2023-12-20_14h41.13.280,gca_avoidance_task,2022.2.4,144.09408761352927,
,,,,,,,,,22,0,22,0,,,,,,,,,,,,,,,,,,,,,,,,,,,,,,7.0,5.2977791000157595,,,,,,,,,,,,,,,,,,,,40,D,2023-12-20_14h41.13.280,gca_avoidance_task,2022.2.4,144.09408761352927,
,,,,,,,,,23,0,23,0,,,,,,,,,,,,,,,,,,,,,,,,,,,,,,5.0,2.250969300046563,,,,,,,,,,,,,,,,,,,,40,D,2023-12-20_14h41.13.280,gca_avoidance_task,2022.2.4,144.09408761352927,
,,,,,,,,,24,0,24,0,,,,,,,,,,,,,,,,,,,,,,,,,,,,,,6.0,1.1472907999996096,,,,,,,,,,,,,,,,,,,,40,D,2023-12-20_14h41.13.280,gca_avoidance_task,2022.2.4,144.09408761352927,
,,,,,,,,,25,0,25,0,,,,,,,,,,,,,,,,,,,,,,,,,,,,,,8.0,1.5391113001387566,,,,,,,,,,,,,,,,,,,,40,D,2023-12-20_14h41.13.280,gca_avoidance_task,2022.2.4,144.09408761352927,
,,,,,,,,,26,0,26,0,,,,,,,,,,,,,,,,,,,,,,,,,,,,,,8.0,0.8196433999110013,,,,,,,,,,,,,,,,,,,,40,D,2023-12-20_14h41.13.280,gca_avoidance_task,2022.2.4,144.09408761352927,
,,,,,,,,,27,0,27,0,,,,,,,,,,,,,,,,,,,,,,,,,,,,,,7.0,2.9645281000994146,,,,,,,,,,,,,,,,,,,,40,D,2023-12-20_14h41.13.280,gca_avoidance_task,2022.2.4,144.09408761352927,
,,,,,,,,,28,0,28,0,,,,,,,,,,,,,,,,,,,,,,,,,,,,,,7.0,1.3877085999120027,,,,,,,,,,,,,,,,,,,,40,D,2023-12-20_14h41.13.280,gca_avoidance_task,2022.2.4,144.09408761352927,
,,,,,,,,,29,0,29,0,,,,,,,,,,,,,,,,,,,,,,,,,,,,,,7.0,4.643059199908748,,,,,,,,,,,,,,,,,,,,40,D,2023-12-20_14h41.13.280,gca_avoidance_task,2022.2.4,144.09408761352927,
,,,,,,,,,30,0,30,0,,,,,,,,,,,,,,,,,,,,,,,,,,,,,,5.0,1.733314299955964,,,,,,,,,,,,,,,,,,,,40,D,2023-12-20_14h41.13.280,gca_avoidance_task,2022.2.4,144.09408761352927,
,,,,,,,,,31,0,31,0,,,,,,,,,,,,,,,,,,,,,,,,,,,,,,5.0,1.0541465000715107,,,,,,,,,,,,,,,,,,,,40,D,2023-12-20_14h41.13.280,gca_avoidance_task,2022.2.4,144.09408761352927,
,,,,,,,,,32,0,32,0,,,,,,,,,,,,,,,,,,,,,,,,,,,,,,7.0,1.1656053999904543,,,,,,,,,,,,,,,,,,,,40,D,2023-12-20_14h41.13.280,gca_avoidance_task,2022.2.4,144.09408761352927,
,,,,,,,,,33,0,33,0,,,,,,,,,,,,,,,,,,,,,,,,,,,,,,6.0,2.426824399968609,,,,,,,,,,,,,,,,,,,,40,D,2023-12-20_14h41.13.280,gca_avoidance_task,2022.2.4,144.09408761352927,
positions.xlsx,stimuli.xlsx,stimuli/Social2.png,stimuli/Social1.png,stimuli/Nonsocial2.png,stimuli/Nonsocial1.png,cs_plus_ns,,,,,,,0,0,0,0,0,0,0,1,,,,,,,,,,,,,,,,,,,,,,,,932.2362468000501,971.4978430999909,3.0,6.479981699958444,,,,,,,,,,,,,,,,40,D,2023-12-20_14h41.13.280,gca_avoidance_task,2022.2.4,144.09408761352927,
positions.xlsx,stimuli.xlsx,stimuli/Social2.png,stimuli/Social1.png,stimuli/Nonsocial2.png,stimuli/Nonsocial1.png,cs_minus_ns,,,,,,,0,0,0,0,0,1,1,3,,,,,,,,,,,,,,,,,,,,,,,,,981.7196651999839,2.0,3.0688207000494003,,,,,,,,,,,,,,,,40,D,2023-12-20_14h41.13.280,gca_avoidance_task,2022.2.4,144.09408761352927,
positions.xlsx,stimuli.xlsx,stimuli/Social2.png,stimuli/Social1.png,stimuli/Nonsocial2.png,stimuli/Nonsocial1.png,cs_minus_s,,,,,,,0,0,0,0,0,2,2,2,,,,,,,,,,,,,,,,,,,,,,,,,985.5320186999161,6.0,3.9242734001018107,,,,,,,,,,,,,,,,40,D,2023-12-20_14h41.13.280,gca_avoidance_task,2022.2.4,144.09408761352927,
positions.xlsx,stimuli.xlsx,stimuli/Social2.png,stimuli/Social1.png,stimuli/Nonsocial2.png,stimuli/Nonsocial1.png,cs_plus_s,,,,,,,0,0,0,0,0,3,3,0,,,,,,,,,,,,,,,,,,,,,,,,,990.5109711999539,4.0,3.96619960013777,,,,,,,,,,,,,,,,40,D,2023-12-20_14h41.13.280,gca_avoidance_task,2022.2.4,144.09408761352927,
positions.xlsx,stimuli.xlsx,stimuli/Social2.png,stimuli/Social1.png,stimuli/Nonsocial2.png,stimuli/Nonsocial1.png,,"(0.7, -0.5)",cs_minus_s,,,,,0,0,0,0,,,,,0,0,0,7,,,,,,,,,,,,,,,,,,,,,,,,995.2261039000005,1012.8364520999603,5,reward,1,0.29177080001682043,0.29177449992857873,1013.1420305999927,,,,,,,,40,D,2023-12-20_14h41.13.280,gca_avoidance_task,2022.2.4,144.09408761352927,
positions.xlsx,stimuli.xlsx,stimuli/Social2.png,stimuli/Social1.png,stimuli/Nonsocial2.png,stimuli/Nonsocial1.png,,"(-0.7, 0.5)",cs_minus_ns,,,,,0,0,0,0,,,,,0,1,1,12,,,,,,,,,,,,,,,,,,,,,,,,,1022.954138699919,10,reward,1,0.2015817000064999,0.20158510003238916,1023.1624791000504,,,,,,,,40,D,2023-12-20_14h41.13.280,gca_avoidance_task,2022.2.4,144.09408761352927,
positions.xlsx,stimuli.xlsx,stimuli/Social2.png,stimuli/Social1.png,stimuli/Nonsocial2.png,stimuli/Nonsocial1.png,,"(0.7, 0.5)",cs_plus_ns,,,,,0,0,0,0,,,,,0,2,2,10,,,,,,,,,,,,,,,,,,,,,,,,,1033.3356625000015,10,shock,1,0.18103459989652038,0.18103850004263222,1033.523179900134,,,,,,,,40,D,2023-12-20_14h41.13.280,gca_avoidance_task,2022.2.4,144.09408761352927,
positions.xlsx,stimuli.xlsx,stimuli/Social2.png,stimuli/Social1.png,stimuli/Nonsocial2.png,stimuli/Nonsocial1.png,,"(-0.7, 0.5)",cs_plus_ns,,,,,0,0,0,0,,,,,0,3,3,8,,,,,,,,,,,,,,,,,,,,,,,,,1042.7936313999817,10,shock,0,,,1044.022780300118,,,,,,,,40,D,2023-12-20_14h41.13.280,gca_avoidance_task,2022.2.4,144.09408761352927,
positions.xlsx,stimuli.xlsx,stimuli/Social2.png,stimuli/Social1.png,stimuli/Nonsocial2.png,stimuli/Nonsocial1.png,,"(-0.7, -0.5)",cs_plus_ns,,,,,0,0,0,0,,,,,0,4,4,9,,,,,,,,,,,,,,,,,,,,,,,,,1053.5362913000863,10,shock,1,0.29134600004181266,0.29134989995509386,1053.8348819001112,,,,,,,,40,D,2023-12-20_14h41.13.280,gca_avoidance_task,2022.2.4,144.09408761352927,
positions.xlsx,stimuli.xlsx,stimuli/Social2.png,stimuli/Social1.png,stimuli/Nonsocial2.png,stimuli/Nonsocial1.png,,"(0.7, -0.5)",cs_plus_ns,,,,,0,0,0,0,,,,,0,5,5,11,,,,,,,,,,,,,,,,,,,,,,,,,1063.6400602001231,10,shock,1,0.23629300016909838,0.2362969999667257,1063.883086600108,,,,,,,,40,D,2023-12-20_14h41.13.280,gca_avoidance_task,2022.2.4,144.09408761352927,
positions.xlsx,stimuli.xlsx,stimuli/Social2.png,stimuli/Social1.png,stimuli/Nonsocial2.png,stimuli/Nonsocial1.png,,"(-0.7, 0.5)",cs_plus_s,,,,,0,0,0,0,,,,,0,6,6,0,,,,,,,,,,,,,,,,,,,,,,,,,1073.4382589999586,10,shock,1,0.007601399905979633,0.007605399936437607,1073.4382589999586,,,,,,,,40,D,2023-12-20_14h41.13.280,gca_avoidance_task,2022.2.4,144.09408761352927,
positions.xlsx,stimuli.xlsx,stimuli/Social2.png,stimuli/Social1.png,stimuli/Nonsocial2.png,stimuli/Nonsocial1.png,,"(-0.7, -0.5)",cs_minus_ns,,,,,0,0,0,0,,,,,0,7,7,13,,,,,,,,,,,,,,,,,,,,,,,,,1082.5490385999437,15,reward,1,1.423517799936235,1.4235216998495162,1083.9795252000913,,,,,,,,40,D,2023-12-20_14h41.13.280,gca_avoidance_task,2022.2.4,144.09408761352927,
positions.xlsx,stimuli.xlsx,stimuli/Social2.png,stimuli/Social1.png,stimuli/Nonsocial2.png,stimuli/Nonsocial1.png,,"(-0.7, -0.5)",cs_minus_s,,,,,0,0,0,0,,,,,0,8,8,5,,,,,,,,,,,,,,,,,,,,,,,,,1093.2152593999635,20,reward,1,0.5141106001101434,0.5141143999062479,1093.7360757000279,,,,,,,,40,D,2023-12-20_14h41.13.280,gca_avoidance_task,2022.2.4,144.09408761352927,
positions.xlsx,stimuli.xlsx,stimuli/Social2.png,stimuli/Social1.png,stimuli/Nonsocial2.png,stimuli/Nonsocial1.png,,"(-0.7, -0.5)",cs_plus_s,,,,,0,0,0,0,,,,,0,9,9,1,,,,,,,,,,,,,,,,,,,,,,,,,1103.3398555000313,20,shock,1,0.23622870002873242,0.23623239994049072,1103.582912000129,,,,,,,,40,D,2023-12-20_14h41.13.280,gca_avoidance_task,2022.2.4,144.09408761352927,
positions.xlsx,stimuli.xlsx,stimuli/Social2.png,stimuli/Social1.png,stimuli/Nonsocial2.png,stimuli/Nonsocial1.png,,"(0.7, 0.5)",cs_minus_ns,,,,,0,0,0,0,,,,,0,10,10,14,,,,,,,,,,,,,,,,,,,,,,,,,1113.1033584000543,25,reward,1,0.38206770014949143,0.38922390015795827,1113.499198100064,,,,,,,,40,D,2023-12-20_14h41.13.280,gca_avoidance_task,2022.2.4,144.09408761352927,
positions.xlsx,stimuli.xlsx,stimuli/Social2.png,stimuli/Social1.png,stimuli/Nonsocial2.png,stimuli/Nonsocial1.png,,"(0.7, 0.5)",cs_minus_s,,,,,0,0,0,0,,,,,0,11,11,6,,,,,,,,,,,,,,,,,,,,,,,,,1122.8668625999708,30,reward,1,0.3752295000012964,0.3752331000287086,1123.2488095001318,,,,,,,,40,D,2023-12-20_14h41.13.280,gca_avoidance_task,2022.2.4,144.09408761352927,
positions.xlsx,stimuli.xlsx,stimuli/Social2.png,stimuli/Social1.png,stimuli/Nonsocial2.png,stimuli/Nonsocial1.png,,"(0.7, -0.5)",cs_plus_s,,,,,0,0,0,0,,,,,0,12,12,3,,,,,,,,,,,,,,,,,,,,,,,,,1133.5400596000254,30,shock,1,0.23622089996933937,0.23622469999827445,1133.7831158000045,,,,,,,,40,D,2023-12-20_14h41.13.280,gca_avoidance_task,2022.2.4,144.09408761352927,
positions.xlsx,stimuli.xlsx,stimuli/Social2.png,stimuli/Social1.png,stimuli/Nonsocial2.png,stimuli/Nonsocial1.png,,"(0.7, -0.5)",cs_minus_ns,,,,,0,0,0,0,,,,,0,13,13,15,,,,,,,,,,,,,,,,,,,,,,,,,1143.352166699944,35,reward,1,0.3475975999608636,0.34760119998827577,1143.7063909000717,,,,,,,,40,D,2023-12-20_14h41.13.280,gca_avoidance_task,2022.2.4,144.09408761352927,
positions.xlsx,stimuli.xlsx,stimuli/Social2.png,stimuli/Social1.png,stimuli/Nonsocial2.png,stimuli/Nonsocial1.png,,"(-0.7, 0.5)",cs_minus_s,,,,,0,0,0,0,,,,,0,14,14,4,,,,,,,,,,,,,,,,,,,,,,,,,1153.6364933000877,40,reward,1,0.25023930007591844,0.25024259998463094,1153.8934239000082,,,,,,,,40,D,2023-12-20_14h41.13.280,gca_avoidance_task,2022.2.4,144.09408761352927,
positions.xlsx,stimuli.xlsx,stimuli/Social2.png,stimuli/Social1.png,stimuli/Nonsocial2.png,stimuli/Nonsocial1.png,,"(0.7, 0.5)",cs_plus_s,,,,,0,0,0,0,,,,,0,15,15,2,,,,,,,,,,,,,,,,,,,,,,,,,1163.3166783999186,40,shock,1,0.41685519996099174,0.416858599986881,1163.7402576999739,,,,,,,,40,D,2023-12-20_14h41.13.280,gca_avoidance_task,2022.2.4,144.09408761352927,
positions.xlsx,stimuli.xlsx,stimuli/Social2.png,stimuli/Social1.png,stimuli/Nonsocial2.png,stimuli/Nonsocial1.png,,"(-0.7, -0.5)",cs_plus_ns,,,,,0,0,0,0,,,,,1,0,16,9,,,,,,,,,,,,,,,,,,,,,,,,,1173.4760074000806,40,shock,1,0.2921303999610245,0.29214739985764027,1173.7746385000646,,,,,,,,40,D,2023-12-20_14h41.13.280,gca_avoidance_task,2022.2.4,144.09408761352927,
positions.xlsx,stimuli.xlsx,stimuli/Social2.png,stimuli/Social1.png,stimuli/Nonsocial2.png,stimuli/Nonsocial1.png,,"(0.7, 0.5)",cs_minus_ns,,,,,0,0,0,0,,,,,1,1,17,14,,,,,,,,,,,,,,,,,,,,,,,,,1184.0589173000772,45,reward,1,0.2780242001172155,0.27802819991484284,1184.343648900045,,,,,,,,40,D,2023-12-20_14h41.13.280,gca_avoidance_task,2022.2.4,144.09408761352927,
positions.xlsx,stimuli.xlsx,stimuli/Social2.png,stimuli/Social1.png,stimuli/Nonsocial2.png,stimuli/Nonsocial1.png,,"(0.7, -0.5)",cs_minus_ns,,,,,0,0,0,0,,,,,1,2,18,15,,,,,,,,,,,,,,,,,,,,,,,,,1193.2043733999599,50,reward,1,0.24318549991585314,0.2431890000589192,1193.4543640001211,,,,,,,,40,D,2023-12-20_14h41.13.280,gca_avoidance_task,2022.2.4,144.09408761352927,
positions.xlsx,stimuli.xlsx,stimuli/Social2.png,stimuli/Social1.png,stimuli/Nonsocial2.png,stimuli/Nonsocial1.png,,"(0.7, -0.5)",cs_minus_s,,,,,0,0,0,0,,,,,1,3,19,7,,,,,,,,,,,,,,,,,,,,,,,,,1203.4748037999962,55,reward,1,0.33348409994505346,0.33348789997398853,1203.8150931999553,,,,,,,,40,D,2023-12-20_14h41.13.280,gca_avoidance_task,2022.2.4,144.09408761352927,
positions.xlsx,stimuli.xlsx,stimuli/Social2.png,stimuli/Social1.png,stimuli/Nonsocial2.png,stimuli/Nonsocial1.png,,"(-0.7, 0.5)",cs_minus_s,,,,,0,0,0,0,,,,,1,4,20,4,,,,,,,,,,,,,,,,,,,,,,,,,1212.8772239000537,60,reward,1,0.22265369980596006,0.22265749983489513,1213.1064253000077,,,,,,,,40,D,2023-12-20_14h41.13.280,gca_avoidance_task,2022.2.4,144.09408761352927,
positions.xlsx,stimuli.xlsx,stimuli/Social2.png,stimuli/Social1.png,stimuli/Nonsocial2.png,stimuli/Nonsocial1.png,,"(0.7, 0.5)",cs_plus_s,,,,,0,0,0,0,,,,,1,5,21,2,,,,,,,,,,,,,,,,,,,,,,,,,1221.9949354999699,60,shock,1,0.2293380000628531,0.2293414999730885,1222.2310407999903,,,,,,,,40,D,2023-12-20_14h41.13.280,gca_avoidance_task,2022.2.4,144.09408761352927,
positions.xlsx,stimuli.xlsx,stimuli/Social2.png,stimuli/Social1.png,stimuli/Nonsocial2.png,stimuli/Nonsocial1.png,,"(0.7, -0.5)",cs_plus_s,,,,,0,0,0,0,,,,,1,6,22,3,,,,,,,,,,,,,,,,,,,,,,,,,1232.418112100102,60,shock,1,0.2500827999319881,0.2500863999594003,1232.6750805000775,,,,,,,,40,D,2023-12-20_14h41.13.280,gca_avoidance_task,2022.2.4,144.09408761352927,
positions.xlsx,stimuli.xlsx,stimuli/Social2.png,stimuli/Social1.png,stimuli/Nonsocial2.png,stimuli/Nonsocial1.png,,"(0.7, 0.5)",cs_plus_ns,,,,,0,0,0,0,,,,,1,7,23,10,,,,,,,,,,,,,,,,,,,,,,,,,1241.3136543000583,60,shock,1,0.3409179002046585,0.3409218001179397,1241.6608384000137,,,,,,,,40,D,2023-12-20_14h41.13.280,gca_avoidance_task,2022.2.4,144.09408761352927,
positions.xlsx,stimuli.xlsx,stimuli/Social2.png,stimuli/Social1.png,stimuli/Nonsocial2.png,stimuli/Nonsocial1.png,,"(0.7, -0.5)",cs_plus_ns,,,,,0,0,0,0,,,,,1,8,24,11,,,,,,,,,,,,,,,,,,,,,,,,,1252.021508899983,60,shock,1,0.2571553001180291,0.2571589001454413,1252.28545570001,,,,,,,,40,D,2023-12-20_14h41.13.280,gca_avoidance_task,2022.2.4,144.09408761352927,
positions.xlsx,stimuli.xlsx,stimuli/Social2.png,stimuli/Social1.png,stimuli/Nonsocial2.png,stimuli/Nonsocial1.png,,"(-0.7, 0.5)",cs_plus_ns,,,,,0,0,0,0,,,,,1,9,25,8,,,,,,,,,,,,,,,,,,,,,,,,,1261.9933458000887,60,shock,1,0.2988056999165565,0.2988093998283148,1262.2988972999156,,,,,,,,40,D,2023-12-20_14h41.13.280,gca_avoidance_task,2022.2.4,144.09408761352927,
positions.xlsx,stimuli.xlsx,stimuli/Social2.png,stimuli/Social1.png,stimuli/Nonsocial2.png,stimuli/Nonsocial1.png,,"(-0.7, 0.5)",cs_minus_ns,,,,,0,0,0,0,,,,,1,10,26,12,,,,,,,,,,,,,,,,,,,,,,,,,1271.7915853001177,65,reward,1,0.24317949987016618,0.24318320001475513,1272.0415664999746,,,,,,,,40,D,2023-12-20_14h41.13.280,gca_avoidance_task,2022.2.4,144.09408761352927,
positions.xlsx,stimuli.xlsx,stimuli/Social2.png,stimuli/Social1.png,stimuli/Nonsocial2.png,stimuli/Nonsocial1.png,,"(-0.7, 0.5)",cs_plus_s,,,,,0,0,0,0,,,,,1,11,27,0,,,,,,,,,,,,,,,,,,,,,,,,,1281.742572300136,65,shock,1,0.222578699933365,0.2225821998436004,1281.9717395000625,,,,,,,,40,D,2023-12-20_14h41.13.280,gca_avoidance_task,2022.2.4,144.09408761352927,
positions.xlsx,stimuli.xlsx,stimuli/Social2.png,stimuli/Social1.png,stimuli/Nonsocial2.png,stimuli/Nonsocial1.png,,"(-0.7, -0.5)",cs_minus_s,,,,,0,0,0,0,,,,,1,12,28,5,,,,,,,,,,,,,,,,,,,,,,,,,1291.3741661000531,70,reward,1,0.3198831998743117,0.31988710002042353,1291.7005521999672,,,,,,,,40,D,2023-12-20_14h41.13.280,gca_avoidance_task,2022.2.4,144.09408761352927,
positions.xlsx,stimuli.xlsx,stimuli/Social2.png,stimuli/Social1.png,stimuli/Nonsocial2.png,stimuli/Nonsocial1.png,,"(0.7, 0.5)",cs_minus_s,,,,,0,0,0,0,,,,,1,13,29,6,,,,,,,,,,,,,,,,,,,,,,,,,1301.8112629000098,75,reward,1,0.2362995999865234,0.23630330013111234,1302.0542953999247,,,,,,,,40,D,2023-12-20_14h41.13.280,gca_avoidance_task,2022.2.4,144.09408761352927,
positions.xlsx,stimuli.xlsx,stimuli/Social2.png,stimuli/Social1.png,stimuli/Nonsocial2.png,stimuli/Nonsocial1.png,,"(-0.7, -0.5)",cs_minus_ns,,,,,0,0,0,0,,,,,1,14,30,13,,,,,,,,,,,,,,,,,,,,,,,,,1311.6372501000296,80,reward,1,0.6878808001056314,0.694782700156793,1312.387221599929,,,,,,,,40,D,2023-12-20_14h41.13.280,gca_avoidance_task,2022.2.4,144.09408761352927,
positions.xlsx,stimuli.xlsx,stimuli/Social2.png,stimuli/Social1.png,stimuli/Nonsocial2.png,stimuli/Nonsocial1.png,,"(-0.7, -0.5)",cs_plus_s,,,,,0,0,0,0,,,,,1,15,31,1,,,,,,,,,,,,,,,,,,,,,,,,,1321.4007739000954,80,shock,1,0.5488165998831391,0.5488203999120742,1321.9563188999891,,,,,,,,40,D,2023-12-20_14h41.13.280,gca_avoidance_task,2022.2.4,144.09408761352927,
positions.xlsx,stimuli.xlsx,stimuli/Social2.png,stimuli/Social1.png,stimuli/Nonsocial2.png,stimuli/Nonsocial1.png,,"(-0.7, -0.5)",cs_plus_s,,,,,0,0,0,0,,,,,,,,,0,0,0,1,,,,,,,,,,,,,,,,,,,,,1340.2541793000419,80,shock,1,0.3054557000286877,0.30545960017479956,1340.566681999946,,,,,,,,40,D,2023-12-20_14h41.13.280,gca_avoidance_task,2022.2.4,144.09408761352927,
positions.xlsx,stimuli.xlsx,stimuli/Social2.png,stimuli/Social1.png,stimuli/Nonsocial2.png,stimuli/Nonsocial1.png,,"(-0.7, -0.5)",cs_minus_s,,,,,0,0,0,0,,,,,,,,,0,1,1,5,,,,,,,,,,,,,,,,,,,,,1349.8163173999637,85,reward,1,0.6668052999302745,0.6668091998435557,1350.4899357000832,,,,,,,,40,D,2023-12-20_14h41.13.280,gca_avoidance_task,2022.2.4,144.09408761352927,
positions.xlsx,stimuli.xlsx,stimuli/Social2.png,stimuli/Social1.png,stimuli/Nonsocial2.png,stimuli/Nonsocial1.png,,"(0.7, 0.5)",cs_plus_s,,,,,0,0,0,0,,,,,,,,,0,2,2,2,,,,,,,,,,,,,,,,,,,,,1359.5103893000633,85,none,0,,,1364.5171495999675,,,,,,,,40,D,2023-12-20_14h41.13.280,gca_avoidance_task,2022.2.4,144.09408761352927,
positions.xlsx,stimuli.xlsx,stimuli/Social2.png,stimuli/Social1.png,stimuli/Nonsocial2.png,stimuli/Nonsocial1.png,,"(0.7, 0.5)",cs_minus_ns,,,,,0,0,0,0,,,,,,,,,0,3,3,14,,,,,,,,,,,,,,,,,,,,,1373.8292436001357,90,reward,1,1.2712433999404311,1.2712472998537123,1375.1069984000642,,,,,,,,40,D,2023-12-20_14h41.13.280,gca_avoidance_task,2022.2.4,144.09408761352927,
positions.xlsx,stimuli.xlsx,stimuli/Social2.png,stimuli/Social1.png,stimuli/Nonsocial2.png,stimuli/Nonsocial1.png,,"(-0.7, -0.5)",cs_minus_ns,,,,,0,0,0,0,,,,,,,,,0,4,4,13,,,,,,,,,,,,,,,,,,,,,1384.467733599944,95,reward,1,0.6113678000401706,0.6182748998980969,1385.092736700084,,,,,,,,40,D,2023-12-20_14h41.13.280,gca_avoidance_task,2022.2.4,144.09408761352927,
positions.xlsx,stimuli.xlsx,stimuli/Social2.png,stimuli/Social1.png,stimuli/Nonsocial2.png,stimuli/Nonsocial1.png,,"(-0.7, 0.5)",cs_plus_ns,,,,,0,0,0,0,,,,,,,,,0,5,5,8,,,,,,,,,,,,,,,,,,,,,1394.7520566999447,95,none,0,,,1399.7657618001103,,,,,,,,40,D,2023-12-20_14h41.13.280,gca_avoidance_task,2022.2.4,144.09408761352927,
positions.xlsx,stimuli.xlsx,stimuli/Social2.png,stimuli/Social1.png,stimuli/Nonsocial2.png,stimuli/Nonsocial1.png,,"(0.7, -0.5)",cs_plus_ns,,,,,0,0,0,0,,,,,,,,,0,6,6,11,,,,,,,,,,,,,,,,,,,,,1409.0362243999261,95,none,0,,,1414.042999499943,,,,,,,,40,D,2023-12-20_14h41.13.280,gca_avoidance_task,2022.2.4,144.09408761352927,
positions.xlsx,stimuli.xlsx,stimuli/Social2.png,stimuli/Social1.png,stimuli/Nonsocial2.png,stimuli/Nonsocial1.png,,"(0.7, -0.5)",cs_minus_ns,,,,,0,0,0,0,,,,,,,,,0,7,7,15,,,,,,,,,,,,,,,,,,,,,1423.605092599988,100,reward,0,,,1424.6398366999347,,,,,,,,40,D,2023-12-20_14h41.13.280,gca_avoidance_task,2022.2.4,144.09408761352927,
positions.xlsx,stimuli.xlsx,stimuli/Social2.png,stimuli/Social1.png,stimuli/Nonsocial2.png,stimuli/Nonsocial1.png,,"(-0.7, 0.5)",cs_minus_ns,,,,,0,0,0,0,,,,,,,,,0,8,8,12,,,,,,,,,,,,,,,,,,,,,1434.1394106000662,105,reward,1,0.3265644998755306,0.32656820002011955,1434.4727434001397,,,,,,,,40,D,2023-12-20_14h41.13.280,gca_avoidance_task,2022.2.4,144.09408761352927,
positions.xlsx,stimuli.xlsx,stimuli/Social2.png,stimuli/Social1.png,stimuli/Nonsocial2.png,stimuli/Nonsocial1.png,,"(-0.7, 0.5)",cs_plus_s,,,,,0,0,0,0,,,,,,,,,0,9,9,0,,,,,,,,,,,,,,,,,,,,,1443.812641999917,105,none,0,,,1448.82633489999,,,,,,,,40,D,2023-12-20_14h41.13.280,gca_avoidance_task,2022.2.4,144.09408761352927,
positions.xlsx,stimuli.xlsx,stimuli/Social2.png,stimuli/Social1.png,stimuli/Nonsocial2.png,stimuli/Nonsocial1.png,,"(-0.7, -0.5)",cs_plus_ns,,,,,0,0,0,0,,,,,,,,,0,10,10,9,,,,,,,,,,,,,,,,,,,,,1457.7010173001327,105,shock,1,0.229457100154832,0.2294610000681132,1457.9371162001044,,,,,,,,40,D,2023-12-20_14h41.13.280,gca_avoidance_task,2022.2.4,144.09408761352927,
positions.xlsx,stimuli.xlsx,stimuli/Social2.png,stimuli/Social1.png,stimuli/Nonsocial2.png,stimuli/Nonsocial1.png,,"(-0.7, 0.5)",cs_minus_s,,,,,0,0,0,0,,,,,,,,,0,11,11,4,,,,,,,,,,,,,,,,,,,,,1466.6659460000228,110,reward,1,0.7985771999228746,0.7985810998361558,1467.4714599999133,,,,,,,,40,D,2023-12-20_14h41.13.280,gca_avoidance_task,2022.2.4,144.09408761352927,
positions.xlsx,stimuli.xlsx,stimuli/Social2.png,stimuli/Social1.png,stimuli/Nonsocial2.png,stimuli/Nonsocial1.png,,"(0.7, -0.5)",cs_minus_s,,,,,0,0,0,0,,,,,,,,,0,12,12,7,,,,,,,,,,,,,,,,,,,,,1477.4918865999207,115,reward,1,0.6111967000178993,0.6112003000453115,1478.1099143999163,,,,,,,,40,D,2023-12-20_14h41.13.280,gca_avoidance_task,2022.2.4,144.09408761352927,
positions.xlsx,stimuli.xlsx,stimuli/Social2.png,stimuli/Social1.png,stimuli/Nonsocial2.png,stimuli/Nonsocial1.png,,"(0.7, 0.5)",cs_plus_ns,,,,,0,0,0,0,,,,,,,,,0,13,13,10,,,,,,,,,,,,,,,,,,,,,1487.9498229001183,115,none,0,,,1492.9635704001412,,,,,,,,40,D,2023-12-20_14h41.13.280,gca_avoidance_task,2022.2.4,144.09408761352927,
positions.xlsx,stimuli.xlsx,stimuli/Social2.png,stimuli/Social1.png,stimuli/Nonsocial2.png,stimuli/Nonsocial1.png,,"(0.7, 0.5)",cs_minus_s,,,,,0,0,0,0,,,,,,,,,0,14,14,6,,,,,,,,,,,,,,,,,,,,,1502.2339995999355,120,reward,1,0.7085017000790685,0.7085055999923497,1502.9492331999354,,,,,,,,40,D,2023-12-20_14h41.13.280,gca_avoidance_task,2022.2.4,144.09408761352927,
positions.xlsx,stimuli.xlsx,stimuli/Social2.png,stimuli/Social1.png,stimuli/Nonsocial2.png,stimuli/Nonsocial1.png,,"(0.7, -0.5)",cs_plus_s,,,,,0,0,0,0,,,,,,,,,0,15,15,3,,,,,,,,,,,,,,,,,,,,,1512.4280427000485,120,none,0,,,1517.4348019999452,,,,,,,,40,D,2023-12-20_14h41.13.280,gca_avoidance_task,2022.2.4,144.09408761352927,
positions.xlsx,stimuli.xlsx,stimuli/Social2.png,stimuli/Social1.png,stimuli/Nonsocial2.png,stimuli/Nonsocial1.png,,"(0.7, -0.5)",cs_plus_ns,,,,,0,0,0,0,,,,,,,,,1,0,16,11,,,,,,,,,,,,,,,,,,,,,1526.2122496000957,120,none,0,,,1531.2189819000196,,,,,,,,40,D,2023-12-20_14h41.13.280,gca_avoidance_task,2022.2.4,144.09408761352927,
positions.xlsx,stimuli.xlsx,stimuli/Social2.png,stimuli/Social1.png,stimuli/Nonsocial2.png,stimuli/Nonsocial1.png,,"(0.7, -0.5)",cs_plus_s,,,,,0,0,0,0,,,,,,,,,1,1,17,3,,,,,,,,,,,,,,,,,,,,,1540.9616561001167,120,none,0,,,1545.9683584999293,,,,,,,,40,D,2023-12-20_14h41.13.280,gca_avoidance_task,2022.2.4,144.09408761352927,
positions.xlsx,stimuli.xlsx,stimuli/Social2.png,stimuli/Social1.png,stimuli/Nonsocial2.png,stimuli/Nonsocial1.png,,"(-0.7, 0.5)",cs_plus_ns,,,,,0,0,0,0,,,,,,,,,1,2,18,8,,,,,,,,,,,,,,,,,,,,,1555.8360953000374,120,shock,1,0.25724039995111525,0.25724429986439645,1556.0999610999133,,,,,,,,40,D,2023-12-20_14h41.13.280,gca_avoidance_task,2022.2.4,144.09408761352927,
positions.xlsx,stimuli.xlsx,stimuli/Social2.png,stimuli/Social1.png,stimuli/Nonsocial2.png,stimuli/Nonsocial1.png,,"(0.7, 0.5)",cs_minus_ns,,,,,0,0,0,0,,,,,,,,,1,3,19,14,,,,,,,,,,,,,,,,,,,,,1565.6412370000035,125,reward,1,0.8889669999480247,0.8889705999754369,1566.5370857000817,,,,,,,,40,D,2023-12-20_14h41.13.280,gca_avoidance_task,2022.2.4,144.09408761352927,
positions.xlsx,stimuli.xlsx,stimuli/Social2.png,stimuli/Social1.png,stimuli/Nonsocial2.png,stimuli/Nonsocial1.png,,"(0.7, 0.5)",cs_minus_s,,,,,0,0,0,0,,,,,,,,,1,4,20,6,,,,,,,,,,,,,,,,,,,,,1575.6617167999502,130,reward,1,0.6946254000067711,0.6946292000357062,1576.3630850000773,,,,,,,,40,D,2023-12-20_14h41.13.280,gca_avoidance_task,2022.2.4,144.09408761352927,
positions.xlsx,stimuli.xlsx,stimuli/Social2.png,stimuli/Social1.png,stimuli/Nonsocial2.png,stimuli/Nonsocial1.png,,"(0.7, -0.5)",cs_minus_ns,,,,,0,0,0,0,,,,,,,,,1,5,21,15,,,,,,,,,,,,,,,,,,,,,1585.7099534000736,135,reward,1,0.8331891000270844,0.8331925999373198,1586.5501393000595,,,,,,,,40,D,2023-12-20_14h41.13.280,gca_avoidance_task,2022.2.4,144.09408761352927,
positions.xlsx,stimuli.xlsx,stimuli/Social2.png,stimuli/Social1.png,stimuli/Nonsocial2.png,stimuli/Nonsocial1.png,,"(-0.7, -0.5)",cs_minus_s,,,,,0,0,0,0,,,,,,,,,1,6,22,5,,,,,,,,,,,,,,,,,,,,,1596.3622614000924,140,reward,1,0.590426100185141,0.590429900214076,1596.959455100121,,,,,,,,40,D,2023-12-20_14h41.13.280,gca_avoidance_task,2022.2.4,144.09408761352927,
positions.xlsx,stimuli.xlsx,stimuli/Social2.png,stimuli/Social1.png,stimuli/Nonsocial2.png,stimuli/Nonsocial1.png,,"(-0.7, -0.5)",cs_minus_ns,,,,,0,0,0,0,,,,,,,,,1,7,23,13,,,,,,,,,,,,,,,,,,,,,1606.611867400119,145,reward,1,0.5766131000127643,0.5766169999260455,1607.1952525000088,,,,,,,,40,D,2023-12-20_14h41.13.280,gca_avoidance_task,2022.2.4,144.09408761352927,
positions.xlsx,stimuli.xlsx,stimuli/Social2.png,stimuli/Social1.png,stimuli/Nonsocial2.png,stimuli/Nonsocial1.png,,"(0.7, -0.5)",cs_minus_s,,,,,0,0,0,0,,,,,,,,,1,8,24,7,,,,,,,,,,,,,,,,,,,,,1616.264313200023,150,reward,1,0.5903887001331896,0.5903928000479937,1616.8614366000984,,,,,,,,40,D,2023-12-20_14h41.13.280,gca_avoidance_task,2022.2.4,144.09408761352927,
positions.xlsx,stimuli.xlsx,stimuli/Social2.png,stimuli/Social1.png,stimuli/Nonsocial2.png,stimuli/Nonsocial1.png,,"(-0.7, -0.5)",cs_plus_ns,,,,,0,0,0,0,,,,,,,,,1,9,25,9,,,,,,,,,,,,,,,,,,,,,1626.7916594001,150,shock,1,0.2571159000508487,0.2571197000797838,1627.0555400000885,,,,,,,,40,D,2023-12-20_14h41.13.280,gca_avoidance_task,2022.2.4,144.09408761352927,
positions.xlsx,stimuli.xlsx,stimuli/Social2.png,stimuli/Social1.png,stimuli/Nonsocial2.png,stimuli/Nonsocial1.png,,"(-0.7, 0.5)",cs_plus_s,,,,,0,0,0,0,,,,,,,,,1,10,26,0,,,,,,,,,,,,,,,,,,,,,1635.8398927000817,150,shock,1,0.5210651000961661,0.5210688000079244,1636.3607425999362,,,,,,,,40,D,2023-12-20_14h41.13.280,gca_avoidance_task,2022.2.4,144.09408761352927,
positions.xlsx,stimuli.xlsx,stimuli/Social2.png,stimuli/Social1.png,stimuli/Nonsocial2.png,stimuli/Nonsocial1.png,,"(0.7, 0.5)",cs_plus_s,,,,,0,0,0,0,,,,,,,,,1,11,27,2,,,,,,,,,,,,,,,,,,,,,1645.9089445001446,150,none,0,,,1650.9157213999424,,,,,,,,40,D,2023-12-20_14h41.13.280,gca_avoidance_task,2022.2.4,144.09408761352927,
positions.xlsx,stimuli.xlsx,stimuli/Social2.png,stimuli/Social1.png,stimuli/Nonsocial2.png,stimuli/Nonsocial1.png,,"(-0.7, -0.5)",cs_plus_s,,,,,0,0,0,0,,,,,,,,,1,12,28,1,,,,,,,,,,,,,,,,,,,,,1660.547284499975,150,none,0,,,1665.554066899931,,,,,,,,40,D,2023-12-20_14h41.13.280,gca_avoidance_task,2022.2.4,144.09408761352927,
positions.xlsx,stimuli.xlsx,stimuli/Social2.png,stimuli/Social1.png,stimuli/Nonsocial2.png,stimuli/Nonsocial1.png,,"(0.7, 0.5)",cs_plus_ns,,,,,0,0,0,0,,,,,,,,,1,13,29,10,,,,,,,,,,,,,,,,,,,,,1674.4147844000254,150,shock,1,0.3054156999569386,0.30541939986869693,1674.7272822000086,,,,,,,,40,D,2023-12-20_14h41.13.280,gca_avoidance_task,2022.2.4,144.09408761352927,
positions.xlsx,stimuli.xlsx,stimuli/Social2.png,stimuli/Social1.png,stimuli/Nonsocial2.png,stimuli/Nonsocial1.png,,"(-0.7, 0.5)",cs_minus_s,,,,,0,0,0,0,,,,,,,,,1,14,30,4,,,,,,,,,,,,,,,,,,,,,1683.8796811001375,155,reward,1,0.7291399000678211,0.7291572999674827,1684.6157814001199,,,,,,,,40,D,2023-12-20_14h41.13.280,gca_avoidance_task,2022.2.4,144.09408761352927,
positions.xlsx,stimuli.xlsx,stimuli/Social2.png,stimuli/Social1.png,stimuli/Nonsocial2.png,stimuli/Nonsocial1.png,,"(-0.7, 0.5)",cs_minus_ns,,,,,0,0,0,0,,,,,,,,,1,15,31,12,,,,,,,,,,,,,,,,,,,,,1694.5528879999183,160,reward,1,0.18783199996687472,0.1878357999958098,1694.747362999944,,,,,,,,40,D,2023-12-20_14h41.13.280,gca_avoidance_task,2022.2.4,144.09408761352927,
positions.xlsx,stimuli.xlsx,stimuli/Social2.png,stimuli/Social1.png,stimuli/Nonsocial2.png,stimuli/Nonsocial1.png,,"(-0.7, -0.5)",cs_minus_s,,,,,0,0,0,0,,,,,,,,,2,0,32,5,,,,,,,,,,,,,,,,,,,,,1704.1011274999473,165,reward,1,0.6529320001136512,0.6529357999097556,1704.7608175000641,,,,,,,,40,D,2023-12-20_14h41.13.280,gca_avoidance_task,2022.2.4,144.09408761352927,
positions.xlsx,stimuli.xlsx,stimuli/Social2.png,stimuli/Social1.png,stimuli/Nonsocial2.png,stimuli/Nonsocial1.png,,"(0.7, -0.5)",cs_minus_s,,,,,0,0,0,0,,,,,,,,,2,1,33,7,,,,,,,,,,,,,,,,,,,,,1714.1771241999231,170,reward,2,0.2850959000643343,0.29175640014000237,1714.531272900058,,,,,,,,40,D,2023-12-20_14h41.13.280,gca_avoidance_task,2022.2.4,144.09408761352927,
positions.xlsx,stimuli.xlsx,stimuli/Social2.png,stimuli/Social1.png,stimuli/Nonsocial2.png,stimuli/Nonsocial1.png,,"(-0.7, 0.5)",cs_minus_ns,,,,,0,0,0,0,,,,,,,,,2,2,34,12,,,,,,,,,,,,,,,,,,,,,1723.6906346001197,175,reward,1,1.1460933000780642,1.1460973001085222,1724.8433656000998,,,,,,,,40,D,2023-12-20_14h41.13.280,gca_avoidance_task,2022.2.4,144.09408761352927,
positions.xlsx,stimuli.xlsx,stimuli/Social2.png,stimuli/Social1.png,stimuli/Nonsocial2.png,stimuli/Nonsocial1.png,,"(-0.7, 0.5)",cs_plus_ns,,,,,0,0,0,0,,,,,,,,,2,3,35,8,,,,,,,,,,,,,,,,,,,,,1734.461037900066,175,shock,1,1.4516676000785083,1.4586790001485497,1735.9540631000418,,,,,,,,40,D,2023-12-20_14h41.13.280,gca_avoidance_task,2022.2.4,144.09408761352927,
positions.xlsx,stimuli.xlsx,stimuli/Social2.png,stimuli/Social1.png,stimuli/Nonsocial2.png,stimuli/Nonsocial1.png,,"(0.7, -0.5)",cs_minus_ns,,,,,0,0,0,0,,,,,,,,,2,4,36,15,,,,,,,,,,,,,,,,,,,,,1745.3148181999568,180,reward,1,0.23615149990655482,0.23615500004962087,1745.5578364999965,,,,,,,,40,D,2023-12-20_14h41.13.280,gca_avoidance_task,2022.2.4,144.09408761352927,
positions.xlsx,stimuli.xlsx,stimuli/Social2.png,stimuli/Social1.png,stimuli/Nonsocial2.png,stimuli/Nonsocial1.png,,"(-0.7, 0.5)",cs_minus_s,,,,,0,0,0,0,,,,,,,,,2,5,37,4,,,,,,,,,,,,,,,,,,,,,1755.3074686001055,185,reward,1,0.701898300088942,0.7019021001178771,1756.0157807001378,,,,,,,,40,D,2023-12-20_14h41.13.280,gca_avoidance_task,2022.2.4,144.09408761352927,
positions.xlsx,stimuli.xlsx,stimuli/Social2.png,stimuli/Social1.png,stimuli/Nonsocial2.png,stimuli/Nonsocial1.png,,"(0.7, -0.5)",cs_plus_s,,,,,0,0,0,0,,,,,,,,,2,6,38,3,,,,,,,,,,,,,,,,,,,,,1765.68207300012,185,none,0,,,1770.688816400012,,,,,,,,40,D,2023-12-20_14h41.13.280,gca_avoidance_task,2022.2.4,144.09408761352927,
positions.xlsx,stimuli.xlsx,stimuli/Social2.png,stimuli/Social1.png,stimuli/Nonsocial2.png,stimuli/Nonsocial1.png,,"(0.7, 0.5)",cs_minus_s,,,,,0,0,0,0,,,,,,,,,2,7,39,6,,,,,,,,,,,,,,,,,,,,,1780.2787075000815,190,reward,1,0.8821860000025481,0.8891284998971969,1781.1745323000941,,,,,,,,40,D,2023-12-20_14h41.13.280,gca_avoidance_task,2022.2.4,144.09408761352927,
positions.xlsx,stimuli.xlsx,stimuli/Social2.png,stimuli/Social1.png,stimuli/Nonsocial2.png,stimuli/Nonsocial1.png,,"(-0.7, -0.5)",cs_plus_s,,,,,0,0,0,0,,,,,,,,,2,8,40,1,,,,,,,,,,,,,,,,,,,,,1790.792186100036,190,none,0,,,1795.798939500004,,,,,,,,40,D,2023-12-20_14h41.13.280,gca_avoidance_task,2022.2.4,144.09408761352927,
positions.xlsx,stimuli.xlsx,stimuli/Social2.png,stimuli/Social1.png,stimuli/Nonsocial2.png,stimuli/Nonsocial1.png,,"(0.7, 0.5)",cs_plus_ns,,,,,0,0,0,0,,,,,,,,,2,9,41,10,,,,,,,,,,,,,,,,,,,,,1805.2708133999258,190,shock,1,0.38892609998583794,0.3889298001304269,1805.6666647000238,,,,,,,,40,D,2023-12-20_14h41.13.280,gca_avoidance_task,2022.2.4,144.09408761352927,
positions.xlsx,stimuli.xlsx,stimuli/Social2.png,stimuli/Social1.png,stimuli/Nonsocial2.png,stimuli/Nonsocial1.png,,"(0.7, 0.5)",cs_plus_s,,,,,0,0,0,0,,,,,,,,,2,10,42,2,,,,,,,,,,,,,,,,,,,,,1815.3259604000486,190,none,0,,,1820.3327069000807,,,,,,,,40,D,2023-12-20_14h41.13.280,gca_avoidance_task,2022.2.4,144.09408761352927,
positions.xlsx,stimuli.xlsx,stimuli/Social2.png,stimuli/Social1.png,stimuli/Nonsocial2.png,stimuli/Nonsocial1.png,,"(-0.7, -0.5)",cs_plus_ns,,,,,0,0,0,0,,,,,,,,,2,11,43,9,,,,,,,,,,,,,,,,,,,,,1829.7490211001132,190,shock,1,0.2296949999872595,0.2296988999005407,1829.9850878000725,,,,,,,,40,D,2023-12-20_14h41.13.280,gca_avoidance_task,2022.2.4,144.09408761352927,
positions.xlsx,stimuli.xlsx,stimuli/Social2.png,stimuli/Social1.png,stimuli/Nonsocial2.png,stimuli/Nonsocial1.png,,"(0.7, -0.5)",cs_plus_ns,,,,,0,0,0,0,,,,,,,,,2,12,44,11,,,,,,,,,,,,,,,,,,,,,1839.186145100044,190,none,0,,,1844.1929474000353,,,,,,,,40,D,2023-12-20_14h41.13.280,gca_avoidance_task,2022.2.4,144.09408761352927,
positions.xlsx,stimuli.xlsx,stimuli/Social2.png,stimuli/Social1.png,stimuli/Nonsocial2.png,stimuli/Nonsocial1.png,,"(0.7, 0.5)",cs_minus_ns,,,,,0,0,0,0,,,,,,,,,2,13,45,14,,,,,,,,,,,,,,,,,,,,,1854.0675113000907,195,reward,1,0.6667477001901716,0.666751499986276,1854.7411172001157,,,,,,,,40,D,2023-12-20_14h41.13.280,gca_avoidance_task,2022.2.4,144.09408761352927,
positions.xlsx,stimuli.xlsx,stimuli/Social2.png,stimuli/Social1.png,stimuli/Nonsocial2.png,stimuli/Nonsocial1.png,,"(-0.7, 0.5)",cs_plus_s,,,,,0,0,0,0,,,,,,,,,2,14,46,0,,,,,,,,,,,,,,,,,,,,,1863.4977317999583,195,shock,1,0.2292079001199454,0.22921169991604984,1863.7337980000302,,,,,,,,40,D,2023-12-20_14h41.13.280,gca_avoidance_task,2022.2.4,144.09408761352927,
positions.xlsx,stimuli.xlsx,stimuli/Social2.png,stimuli/Social1.png,stimuli/Nonsocial2.png,stimuli/Nonsocial1.png,,"(-0.7, -0.5)",cs_minus_ns,,,,,0,0,0,0,,,,,,,,,2,15,47,13,,,,,,,,,,,,,,,,,,,,,1873.4556514001451,200,reward,1,0.7220906000584364,0.7220946000888944,1874.184792400105,,,,,,,,40,D,2023-12-20_14h41.13.280,gca_avoidance_task,2022.2.4,144.09408761352927,
positions.xlsx,stimuli.xlsx,stimuli/Social2.png,stimuli/Social1.png,stimuli/Nonsocial2.png,stimuli/Nonsocial1.png,,"(0.7, 0.5)",cs_minus_s,,,,,0,0,0,0,,,,,,,,,3,0,48,6,,,,,,,,,,,,,,,,,,,,,1883.2399840001017,205,reward,1,0.6946461000479758,0.7018802999518812,1883.9483227001037,,,,,,,,40,D,2023-12-20_14h41.13.280,gca_avoidance_task,2022.2.4,144.09408761352927,
positions.xlsx,stimuli.xlsx,stimuli/Social2.png,stimuli/Social1.png,stimuli/Nonsocial2.png,stimuli/Nonsocial1.png,,"(0.7, -0.5)",cs_plus_s,,,,,0,0,0,0,,,,,,,,,3,1,49,3,,,,,,,,,,,,,,,,,,,,,1893.6284940999467,205,shock,1,0.39610700006596744,0.39611049997620285,1894.0312340999953,,,,,,,,40,D,2023-12-20_14h41.13.280,gca_avoidance_task,2022.2.4,144.09408761352927,
positions.xlsx,stimuli.xlsx,stimuli/Social2.png,stimuli/Social1.png,stimuli/Nonsocial2.png,stimuli/Nonsocial1.png,,"(0.7, 0.5)",cs_minus_ns,,,,,0,0,0,0,,,,,,,,,3,2,50,14,,,,,,,,,,,,,,,,,,,,,1903.2669923999347,210,reward,1,0.8615780000109226,0.8615816999226809,1904.1350384000689,,,,,,,,40,D,2023-12-20_14h41.13.280,gca_avoidance_task,2022.2.4,144.09408761352927,
positions.xlsx,stimuli.xlsx,stimuli/Social2.png,stimuli/Social1.png,stimuli/Nonsocial2.png,stimuli/Nonsocial1.png,,"(-0.7, -0.5)",cs_plus_ns,,,,,0,0,0,0,,,,,,,,,3,3,51,9,,,,,,,,,,,,,,,,,,,,,1914.218010300072,210,none,0,,,1919.2246981000062,,,,,,,,40,D,2023-12-20_14h41.13.280,gca_avoidance_task,2022.2.4,144.09408761352927,
positions.xlsx,stimuli.xlsx,stimuli/Social2.png,stimuli/Social1.png,stimuli/Nonsocial2.png,stimuli/Nonsocial1.png,,"(-0.7, -0.5)",cs_minus_s,,,,,0,0,0,0,,,,,,,,,3,4,52,5,,,,,,,,,,,,,,,,,,,,,1929.3493196999189,215,reward,1,0.2293416999746114,0.22934590000659227,1929.5854265000671,,,,,,,,40,D,2023-12-20_14h41.13.280,gca_avoidance_task,2022.2.4,144.09408761352927,
positions.xlsx,stimuli.xlsx,stimuli/Social2.png,stimuli/Social1.png,stimuli/Nonsocial2.png,stimuli/Nonsocial1.png,,"(-0.7, -0.5)",cs_plus_s,,,,,0,0,0,0,,,,,,,,,3,5,53,1,,,,,,,,,,,,,,,,,,,,,1939.4669757999945,215,none,0,,,1944.4737361001316,,,,,,,,40,D,2023-12-20_14h41.13.280,gca_avoidance_task,2022.2.4,144.09408761352927,
positions.xlsx,stimuli.xlsx,stimuli/Social2.png,stimuli/Social1.png,stimuli/Nonsocial2.png,stimuli/Nonsocial1.png,,"(0.7, 0.5)",cs_plus_s,,,,,0,0,0,0,,,,,,,,,3,6,54,2,,,,,,,,,,,,,,,,,,,,,1953.8344968999736,215,shock,1,0.2918789000250399,0.29188240016810596,1954.1261193000246,,,,,,,,40,D,2023-12-20_14h41.13.280,gca_avoidance_task,2022.2.4,144.09408761352927,
positions.xlsx,stimuli.xlsx,stimuli/Social2.png,stimuli/Social1.png,stimuli/Nonsocial2.png,stimuli/Nonsocial1.png,,"(0.7, -0.5)",cs_plus_ns,,,,,0,0,0,0,,,,,,,,,3,7,55,11,,,,,,,,,,,,,,,,,,,,,1963.7854532999918,215,none,0,,,1968.7922217000742,,,,,,,,40,D,2023-12-20_14h41.13.280,gca_avoidance_task,2022.2.4,144.09408761352927,
positions.xlsx,stimuli.xlsx,stimuli/Social2.png,stimuli/Social1.png,stimuli/Nonsocial2.png,stimuli/Nonsocial1.png,,"(-0.7, -0.5)",cs_minus_ns,,,,,0,0,0,0,,,,,,,,,3,8,56,13,,,,,,,,,,,,,,,,,,,,,1978.8543533999473,220,reward,1,0.7920599000062793,0.7920637999195606,1979.652905400144,,,,,,,,40,D,2023-12-20_14h41.13.280,gca_avoidance_task,2022.2.4,144.09408761352927,
positions.xlsx,stimuli.xlsx,stimuli/Social2.png,stimuli/Social1.png,stimuli/Nonsocial2.png,stimuli/Nonsocial1.png,,"(-0.7, 0.5)",cs_minus_ns,,,,,0,0,0,0,,,,,,,,,3,9,57,12,,,,,,,,,,,,,,,,,,,,,1988.4928391000722,225,reward,1,0.4866013000719249,0.4866049000993371,1988.985878800042,,,,,,,,40,D,2023-12-20_14h41.13.280,gca_avoidance_task,2022.2.4,144.09408761352927,
positions.xlsx,stimuli.xlsx,stimuli/Social2.png,stimuli/Social1.png,stimuli/Nonsocial2.png,stimuli/Nonsocial1.png,,"(0.7, 0.5)",cs_plus_ns,,,,,0,0,0,0,,,,,,,,,3,10,58,10,,,,,,,,,,,,,,,,,,,,,1998.4994111999404,225,none,0,,,2003.50619500014,,,,,,,,40,D,2023-12-20_14h41.13.280,gca_avoidance_task,2022.2.4,144.09408761352927,
positions.xlsx,stimuli.xlsx,stimuli/Social2.png,stimuli/Social1.png,stimuli/Nonsocial2.png,stimuli/Nonsocial1.png,,"(-0.7, 0.5)",cs_plus_ns,,,,,0,0,0,0,,,,,,,,,3,11,59,8,,,,,,,,,,,,,,,,,,,,,2012.922448300058,225,none,0,,,2017.9292043999303,,,,,,,,40,D,2023-12-20_14h41.13.280,gca_avoidance_task,2022.2.4,144.09408761352927,
positions.xlsx,stimuli.xlsx,stimuli/Social2.png,stimuli/Social1.png,stimuli/Nonsocial2.png,stimuli/Nonsocial1.png,,"(-0.7, 0.5)",cs_minus_s,,,,,0,0,0,0,,,,,,,,,3,12,60,4,,,,,,,,,,,,,,,,,,,,,2027.9149408000521,230,reward,1,1.0140555000398308,1.0140595000702888,2028.9357418001164,,,,,,,,40,D,2023-12-20_14h41.13.280,gca_avoidance_task,2022.2.4,144.09408761352927,
positions.xlsx,stimuli.xlsx,stimuli/Social2.png,stimuli/Social1.png,stimuli/Nonsocial2.png,stimuli/Nonsocial1.png,,"(0.7, -0.5)",cs_minus_s,,,,,0,0,0,0,,,,,,,,,3,13,61,7,,,,,,,,,,,,,,,,,,,,,2038.9075577999465,235,reward,1,0.31963369995355606,0.31963739986531436,2039.2339288999792,,,,,,,,40,D,2023-12-20_14h41.13.280,gca_avoidance_task,2022.2.4,144.09408761352927,
positions.xlsx,stimuli.xlsx,stimuli/Social2.png,stimuli/Social1.png,stimuli/Nonsocial2.png,stimuli/Nonsocial1.png,,"(0.7, -0.5)",cs_minus_ns,,,,,0,0,0,0,,,,,,,,,3,14,62,15,,,,,,,,,,,,,,,,,,,,,2049.365488700103,240,reward,1,0.7495544999837875,0.7495580001268536,2050.1224018000066,,,,,,,,40,D,2023-12-20_14h41.13.280,gca_avoidance_task,2022.2.4,144.09408761352927,
positions.xlsx,stimuli.xlsx,stimuli/Social2.png,stimuli/Social1.png,stimuli/Nonsocial2.png,stimuli/Nonsocial1.png,,"(-0.7, 0.5)",cs_plus_s,,,,,0,0,0,0,,,,,,,,,3,15,63,0,,,,,,,,,,,,,,,,,,,,,2060.2956437999383,240,none,0,,,2065.3023842999246,,,,,,,,40,D,2023-12-20_14h41.13.280,gca_avoidance_task,2022.2.4,144.09408761352927,
positions.xlsx,stimuli.xlsx,stimuli/Social2.png,stimuli/Social1.png,stimuli/Nonsocial2.png,stimuli/Nonsocial1.png,,"(0.7, -0.5)",cs_plus_ns,,,,,0,0,0,0,,,,,,,,,4,0,64,11,,,,,,,,,,,,,,,,,,,,,2075.454772300087,240,none,0,,,2080.461500399979,,,,,,,,40,D,2023-12-20_14h41.13.280,gca_avoidance_task,2022.2.4,144.09408761352927,
positions.xlsx,stimuli.xlsx,stimuli/Social2.png,stimuli/Social1.png,stimuli/Nonsocial2.png,stimuli/Nonsocial1.png,,"(0.7, 0.5)",cs_minus_s,,,,,0,0,0,0,,,,,,,,,4,1,65,6,,,,,,,,,,,,,,,,,,,,,2089.315334300045,245,reward,1,0.7364161999430507,0.736419899854809,2090.0583818999585,,,,,,,,40,D,2023-12-20_14h41.13.280,gca_avoidance_task,2022.2.4,144.09408761352927,
positions.xlsx,stimuli.xlsx,stimuli/Social2.png,stimuli/Social1.png,stimuli/Nonsocial2.png,stimuli/Nonsocial1.png,,"(0.7, -0.5)",cs_minus_s,,,,,0,0,0,0,,,,,,,,,4,2,66,7,,,,,,,,,,,,,,,,,,,,,2099.4122002001386,250,reward,1,0.2085390998981893,0.2156866998411715,2099.6343704001047,,,,,,,,40,D,2023-12-20_14h41.13.280,gca_avoidance_task,2022.2.4,144.09408761352927,
positions.xlsx,stimuli.xlsx,stimuli/Social2.png,stimuli/Social1.png,stimuli/Nonsocial2.png,stimuli/Nonsocial1.png,,"(-0.7, -0.5)",cs_minus_ns,,,,,0,0,0,0,,,,,,,,,4,3,67,13,,,,,,,,,,,,,,,,,,,,,2108.911780100083,255,reward,1,0.7094505000859499,0.7094540998805314,2109.6270490000024,,,,,,,,40,D,2023-12-20_14h41.13.280,gca_avoidance_task,2022.2.4,144.09408761352927,
positions.xlsx,stimuli.xlsx,stimuli/Social2.png,stimuli/Social1.png,stimuli/Nonsocial2.png,stimuli/Nonsocial1.png,,"(-0.7, 0.5)",cs_plus_s,,,,,0,0,0,0,,,,,,,,,4,4,68,0,,,,,,,,,,,,,,,,,,,,,2119.216960699996,255,none,0,,,2124.2237414000556,,,,,,,,40,D,2023-12-20_14h41.13.280,gca_avoidance_task,2022.2.4,144.09408761352927,
positions.xlsx,stimuli.xlsx,stimuli/Social2.png,stimuli/Social1.png,stimuli/Nonsocial2.png,stimuli/Nonsocial1.png,,"(0.7, -0.5)",cs_minus_ns,,,,,0,0,0,0,,,,,,,,,4,5,69,15,,,,,,,,,,,,,,,,,,,,,2133.4663895999547,260,reward,1,1.0005358001217246,1.0005397000350058,2134.4732963000424,,,,,,,,40,D,2023-12-20_14h41.13.280,gca_avoidance_task,2022.2.4,144.09408761352927,
positions.xlsx,stimuli.xlsx,stimuli/Social2.png,stimuli/Social1.png,stimuli/Nonsocial2.png,stimuli/Nonsocial1.png,,"(0.7, 0.5)",cs_plus_ns,,,,,0,0,0,0,,,,,,,,,4,6,70,10,,,,,,,,,,,,,,,,,,,,,2144.084030600032,260,none,0,,,2149.090816500131,,,,,,,,40,D,2023-12-20_14h41.13.280,gca_avoidance_task,2022.2.4,144.09408761352927,
positions.xlsx,stimuli.xlsx,stimuli/Social2.png,stimuli/Social1.png,stimuli/Nonsocial2.png,stimuli/Nonsocial1.png,,"(-0.7, 0.5)",cs_minus_s,,,,,0,0,0,0,,,,,,,,,4,7,71,4,,,,,,,,,,,,,,,,,,,,,2158.7917901000474,265,reward,1,0.6391397998668253,0.6391435998957604,2159.4376040000934,,,,,,,,40,D,2023-12-20_14h41.13.280,gca_avoidance_task,2022.2.4,144.09408761352927,
positions.xlsx,stimuli.xlsx,stimuli/Social2.png,stimuli/Social1.png,stimuli/Nonsocial2.png,stimuli/Nonsocial1.png,,"(-0.7, -0.5)",cs_plus_ns,,,,,0,0,0,0,,,,,,,,,4,8,72,9,,,,,,,,,,,,,,,,,,,,,2168.305330600124,265,none,0,,,2173.3121245999355,,,,,,,,40,D,2023-12-20_14h41.13.280,gca_avoidance_task,2022.2.4,144.09408761352927,
positions.xlsx,stimuli.xlsx,stimuli/Social2.png,stimuli/Social1.png,stimuli/Nonsocial2.png,stimuli/Nonsocial1.png,,"(-0.7, 0.5)",cs_minus_ns,,,,,0,0,0,0,,,,,,,,,4,9,73,12,,,,,,,,,,,,,,,,,,,,,2182.5061451999936,270,reward,1,1.1391767000313848,1.139180300058797,2183.6519339000806,,,,,,,,40,D,2023-12-20_14h41.13.280,gca_avoidance_task,2022.2.4,144.09408761352927,
positions.xlsx,stimuli.xlsx,stimuli/Social2.png,stimuli/Social1.png,stimuli/Nonsocial2.png,stimuli/Nonsocial1.png,,"(-0.7, -0.5)",cs_minus_s,,,,,0,0,0,0,,,,,,,,,4,10,74,5,,,,,,,,,,,,,,,,,,,,,2193.054352800129,275,reward,0,,,2195.471001900034,,,,,,,,40,D,2023-12-20_14h41.13.280,gca_avoidance_task,2022.2.4,144.09408761352927,
positions.xlsx,stimuli.xlsx,stimuli/Social2.png,stimuli/Social1.png,stimuli/Nonsocial2.png,stimuli/Nonsocial1.png,,"(0.7, -0.5)",cs_plus_s,,,,,0,0,0,0,,,,,,,,,4,11,75,3,,,,,,,,,,,,,,,,,,,,,2205.5538685999345,275,none,0,,,2210.5606547999196,,,,,,,,40,D,2023-12-20_14h41.13.280,gca_avoidance_task,2022.2.4,144.09408761352927,
positions.xlsx,stimuli.xlsx,stimuli/Social2.png,stimuli/Social1.png,stimuli/Nonsocial2.png,stimuli/Nonsocial1.png,,"(0.7, 0.5)",cs_plus_s,,,,,0,0,0,0,,,,,,,,,4,12,76,2,,,,,,,,,,,,,,,,,,,,,2220.011685400037,275,none,0,,,2225.018401300069,,,,,,,,40,D,2023-12-20_14h41.13.280,gca_avoidance_task,2022.2.4,144.09408761352927,
positions.xlsx,stimuli.xlsx,stimuli/Social2.png,stimuli/Social1.png,stimuli/Nonsocial2.png,stimuli/Nonsocial1.png,,"(0.7, 0.5)",cs_minus_ns,,,,,0,0,0,0,,,,,,,,,4,13,77,14,,,,,,,,,,,,,,,,,,,,,2234.1847346001305,280,reward,1,0.7431171999778599,0.7501119999215007,2234.9416128001176,,,,,,,,40,D,2023-12-20_14h41.13.280,gca_avoidance_task,2022.2.4,144.09408761352927,
positions.xlsx,stimuli.xlsx,stimuli/Social2.png,stimuli/Social1.png,stimuli/Nonsocial2.png,stimuli/Nonsocial1.png,,"(-0.7, 0.5)",cs_plus_ns,,,,,0,0,0,0,,,,,,,,,4,14,78,8,,,,,,,,,,,,,,,,,,,,,2244.649579799967,280,shock,1,0.21566010010428727,0.21566370013169944,2244.8717750001233,,,,,,,,40,D,2023-12-20_14h41.13.280,gca_avoidance_task,2022.2.4,144.09408761352927,
positions.xlsx,stimuli.xlsx,stimuli/Social2.png,stimuli/Social1.png,stimuli/Nonsocial2.png,stimuli/Nonsocial1.png,,"(-0.7, -0.5)",cs_plus_s,,,,,0,0,0,0,,,,,,,,,4,15,79,1,,,,,,,,,,,,,,,,,,,,,2254.357550200075,280,shock,1,0.27093550004065037,0.27093930006958544,2254.628346200101,,,,,,,,40,D,2023-12-20_14h41.13.280,gca_avoidance_task,2022.2.4,144.09408761352927,
positions.xlsx,stimuli.xlsx,stimuli/Social2.png,stimuli/Social1.png,stimuli/Nonsocial2.png,stimuli/Nonsocial1.png,cs_minus_ns,,,,,,,0,0,0,0,,,,,,,,,,,,,0,0,0,3,,,,,,,,,,,,,2269.3222447000444,9.0,5.9473983000498265,,,,,,,,,7.0,6.750041699968278,,,,,,40,D,2023-12-20_14h41.13.280,gca_avoidance_task,2022.2.4,144.09408761352927,
positions.xlsx,stimuli.xlsx,stimuli/Social2.png,stimuli/Social1.png,stimuli/Nonsocial2.png,stimuli/Nonsocial1.png,cs_plus_ns,,,,,,,0,0,0,0,,,,,,,,,,,,,0,1,1,1,,,,,,,,,,,,,2276.196978900116,1.0,2.181285100057721,,,,,,,,,,,,,,,,40,D,2023-12-20_14h41.13.280,gca_avoidance_task,2022.2.4,144.09408761352927,
positions.xlsx,stimuli.xlsx,stimuli/Social2.png,stimuli/Social1.png,stimuli/Nonsocial2.png,stimuli/Nonsocial1.png,cs_minus_s,,,,,,,0,0,0,0,,,,,,,,,,,,,0,2,2,2,,,,,,,,,,,,,2278.530209199991,8.0,1.9179144999943674,,,,,,,,,,,,,,,,40,D,2023-12-20_14h41.13.280,gca_avoidance_task,2022.2.4,144.09408761352927,
positions.xlsx,stimuli.xlsx,stimuli/Social2.png,stimuli/Social1.png,stimuli/Nonsocial2.png,stimuli/Nonsocial1.png,cs_plus_s,,,,,,,0,0,0,0,,,,,,,,,,,,,0,3,3,0,,,,,,,,,,,,,2280.759266600013,1.0,1.7228725999593735,,,,,,,,,,,,,,,,40,D,2023-12-20_14h41.13.280,gca_avoidance_task,2022.2.4,144.09408761352927,
positions.xlsx,stimuli.xlsx,stimuli/Social2.png,stimuli/Social1.png,stimuli/Nonsocial2.png,stimuli/Nonsocial1.png,cs_minus_ns,,,,,,,0,0,0,0,,,,,,,,,,,,,,,,,0,0,0,3,,,,,,,,,,,,,,,,,,,,,,2282.606439199997,2296.6544937000144,4,0.42343339999206364,8.777300899848342,40,D,2023-12-20_14h41.13.280,gca_avoidance_task,2022.2.4,144.09408761352927,
positions.xlsx,stimuli.xlsx,stimuli/Social2.png,stimuli/Social1.png,stimuli/Nonsocial2.png,stimuli/Nonsocial1.png,cs_plus_s,,,,,,,0,0,0,0,,,,,,,,,,,,,,,,,0,1,1,0,,,,,,,,,,,,,,,,,,,,,,,2311.285913000116,4,0.013252299977466464,4.104402800090611,40,D,2023-12-20_14h41.13.280,gca_avoidance_task,2022.2.4,144.09408761352927,
positions.xlsx,stimuli.xlsx,stimuli/Social2.png,stimuli/Social1.png,stimuli/Nonsocial2.png,stimuli/Nonsocial1.png,cs_minus_s,,,,,,,0,0,0,0,,,,,,,,,,,,,,,,,0,2,2,2,,,,,,,,,,,,,,,,,,,,,,,2326.6533679000568,5,0.01348259998485446,1.9865029000211507,40,D,2023-12-20_14h41.13.280,gca_avoidance_task,2022.2.4,144.09408761352927,
positions.xlsx,stimuli.xlsx,stimuli/Social2.png,stimuli/Social1.png,stimuli/Nonsocial2.png,stimuli/Nonsocial1.png,cs_plus_ns,,,,,,,0,0,0,0,,,,,,,,,,,,,,,,,0,3,3,1,,,,,,,,,,,,,,,,,,,,,,,2342.0972305999603,5,0.01426759990863502,6.770918800029904,40,D,2023-12-20_14h41.13.280,gca_avoidance_task,2022.2.4,144.09408761352927,
positions.xlsx,stimuli.xlsx,stimuli/Social2.png,stimuli/Social1.png,stimuli/Nonsocial2.png,stimuli/Nonsocial1.png,cs_minus_ns,,,,,,,0,0,0,0,,,,,,,,,,,,,,,,,1,0,4,3,,,,,,,,,,,,,,,,,,,,,,,2356.929965000134,3,0.25729650002904236,1.583511200034991,40,D,2023-12-20_14h41.13.280,gca_avoidance_task,2022.2.4,144.09408761352927,
positions.xlsx,stimuli.xlsx,stimuli/Social2.png,stimuli/Social1.png,stimuli/Nonsocial2.png,stimuli/Nonsocial1.png,cs_plus_ns,,,,,,,0,0,0,0,,,,,,,,,,,,,,,,,1,1,5,1,,,,,,,,,,,,,,,,,,,,,,,2372.422443400137,4,0.014033300103619695,4.06267930008471,40,D,2023-12-20_14h41.13.280,gca_avoidance_task,2022.2.4,144.09408761352927,
positions.xlsx,stimuli.xlsx,stimuli/Social2.png,stimuli/Social1.png,stimuli/Nonsocial2.png,stimuli/Nonsocial1.png,cs_minus_s,,,,,,,0,0,0,0,,,,,,,,,,,,,,,,,1,2,6,2,,,,,,,,,,,,,,,,,,,,,,,2387.776016799966,5,0.013764199800789356,0.8407400997821242,40,D,2023-12-20_14h41.13.280,gca_avoidance_task,2022.2.4,144.09408761352927,
positions.xlsx,stimuli.xlsx,stimuli/Social2.png,stimuli/Social1.png,stimuli/Nonsocial2.png,stimuli/Nonsocial1.png,cs_plus_s,,,,,,,0,0,0,0,,,,,,,,,,,,,,,,,1,3,7,0,,,,,,,,,,,,,,,,,,,,,,,2402.9351260999683,7,0.13230099994689226,3.021209799917415,40,D,2023-12-20_14h41.13.280,gca_avoidance_task,2022.2.4,144.09408761352927,
positions.xlsx,stimuli.xlsx,stimuli/Social2.png,stimuli/Social1.png,stimuli/Nonsocial2.png,stimuli/Nonsocial1.png,cs_plus_ns,,,,,,,0,0,0,0,,,,,,,,,,,,,,,,,2,0,8,1,,,,,,,,,,,,,,,,,,,,,,,2417.976214400027,5,0.015289600007236004,1.9239002999383956,40,D,2023-12-20_14h41.13.280,gca_avoidance_task,2022.2.4,144.09408761352927,
positions.xlsx,stimuli.xlsx,stimuli/Social2.png,stimuli/Social1.png,stimuli/Nonsocial2.png,stimuli/Nonsocial1.png,cs_minus_s,,,,,,,0,0,0,0,,,,,,,,,,,,,,,,,2,1,9,2,,,,,,,,,,,,,,,,,,,,,,,2432.6353672000114,6,0.215723600005731,1.0004094000905752,40,D,2023-12-20_14h41.13.280,gca_avoidance_task,2022.2.4,144.09408761352927,
positions.xlsx,stimuli.xlsx,stimuli/Social2.png,stimuli/Social1.png,stimuli/Nonsocial2.png,stimuli/Nonsocial1.png,cs_plus_s,,,,,,,0,0,0,0,,,,,,,,,,,,,,,,,2,2,10,0,,,,,,,,,,,,,,,,,,,,,,,2447.537562200101,2,0.3267711999360472,1.5489183999598026,40,D,2023-12-20_14h41.13.280,gca_avoidance_task,2022.2.4,144.09408761352927,
positions.xlsx,stimuli.xlsx,stimuli/Social2.png,stimuli/Social1.png,stimuli/Nonsocial2.png,stimuli/Nonsocial1.png,cs_minus_ns,,,,,,,0,0,0,0,,,,,,,,,,,,,,,,,2,3,11,3,,,,,,,,,,,,,,,,,,,,,,,2462.113406700082,4,0.7851015999913216,1.4656695001758635,40,D,2023-12-20_14h41.13.280,gca_avoidance_task,2022.2.4,144.09408761352927,
positions.xlsx,stimuli.xlsx,stimuli/Social2.png,stimuli/Social1.png,stimuli/Nonsocial2.png,stimuli/Nonsocial1.png,cs_minus_s,,,,,,,0,0,0,0,,,,,,,,,,,,,,,,,3,0,12,2,,,,,,,,,,,,,,,,,,,,,,,2477.578056999948,1,0.18102909997105598,10.000066299922764,40,D,2023-12-20_14h41.13.280,gca_avoidance_task,2022.2.4,144.09408761352927,
positions.xlsx,stimuli.xlsx,stimuli/Social2.png,stimuli/Social1.png,stimuli/Nonsocial2.png,stimuli/Nonsocial1.png,cs_plus_ns,,,,,,,0,0,0,0,,,,,,,,,,,,,,,,,3,1,13,1,,,,,,,,,,,,,,,,,,,,,,,2492.924690700136,4,0.18091029999777675,1.7365198999177665,40,D,2023-12-20_14h41.13.280,gca_avoidance_task,2022.2.4,144.09408761352927,
positions.xlsx,stimuli.xlsx,stimuli/Social2.png,stimuli/Social1.png,stimuli/Nonsocial2.png,stimuli/Nonsocial1.png,cs_plus_s,,,,,,,0,0,0,0,,,,,,,,,,,,,,,,,3,2,14,0,,,,,,,,,,,,,,,,,,,,,,,2508.3199162001256,1,0.27836439991369843,2.5836779000237584,40,D,2023-12-20_14h41.13.280,gca_avoidance_task,2022.2.4,144.09408761352927,
positions.xlsx,stimuli.xlsx,stimuli/Social2.png,stimuli/Social1.png,stimuli/Nonsocial2.png,stimuli/Nonsocial1.png,cs_minus_ns,,,,,,,0,0,0,0,,,,,,,,,,,,,,,,,3,3,15,3,,,,,,,,,,,,,,,,,,,,,,,2523.8192978999577,5,1.0280625999439508,1.2363444999791682,40,D,2023-12-20_14h41.13.280,gca_avoidance_task,2022.2.4,144.09408761352927,
positions.xlsx,stimuli.xlsx,stimuli/Social2.png,stimuli/Social1.png,stimuli/Nonsocial2.png,stimuli/Nonsocial1.png,cs_plus_ns,,,,,,,0,0,0,0,,,,,,,,,,,,,,,,,4,0,16,1,,,,,,,,,,,,,,,,,,,,,,,2539.110446800012,2,0.014078499982133508,3.0488374999258667,40,D,2023-12-20_14h41.13.280,gca_avoidance_task,2022.2.4,144.09408761352927,
positions.xlsx,stimuli.xlsx,stimuli/Social2.png,stimuli/Social1.png,stimuli/Nonsocial2.png,stimuli/Nonsocial1.png,cs_plus_s,,,,,,,0,0,0,0,,,,,,,,,,,,,,,,,4,1,17,0,,,,,,,,,,,,,,,,,,,,,,,2554.582037199987,4,0.013614800060167909,3.208596100099385,40,D,2023-12-20_14h41.13.280,gca_avoidance_task,2022.2.4,144.09408761352927,
positions.xlsx,stimuli.xlsx,stimuli/Social2.png,stimuli/Social1.png,stimuli/Nonsocial2.png,stimuli/Nonsocial1.png,cs_minus_ns,,,,,,,0,0,0,0,,,,,,,,,,,,,,,,,4,2,18,3,,,,,,,,,,,,,,,,,,,,,,,2569.6925661999267,4,0.014298100024461746,0.8823554001282901,40,D,2023-12-20_14h41.13.280,gca_avoidance_task,2022.2.4,144.09408761352927,
positions.xlsx,stimuli.xlsx,stimuli/Social2.png,stimuli/Social1.png,stimuli/Nonsocial2.png,stimuli/Nonsocial1.png,cs_minus_s,,,,,,,0,0,0,0,,,,,,,,,,,,,,,,,4,3,19,2,,,,,,,,,,,,,,,,,,,,,,,2584.3725594000425,5,3.5419859001412988,4.285025299992412,40,D,2023-12-20_14h41.13.280,gca_avoidance_task,2022.2.4,144.09408761352927,
positions.xlsx,stimuli.xlsx,stimuli/Social2.png,stimuli/Social1.png,stimuli/Nonsocial2.png,stimuli/Nonsocial1.png,cs_plus_s,,,,,,,0,0,0,0,,,,,,,,,,,,,,,,,5,0,20,0,,,,,,,,,,,,,,,,,,,,,,,2599.6844301000237,3,0.014464299893006682,0.8892896000761539,40,D,2023-12-20_14h41.13.280,gca_avoidance_task,2022.2.4,144.09408761352927,
positions.xlsx,stimuli.xlsx,stimuli/Social2.png,stimuli/Social1.png,stimuli/Nonsocial2.png,stimuli/Nonsocial1.png,cs_minus_s,,,,,,,0,0,0,0,,,,,,,,,,,,,,,,,5,1,21,2,,,,,,,,,,,,,,,,,,,,,,,2615.0588324000128,11,0.11909209983423352,0.8682500999420881,40,D,2023-12-20_14h41.13.280,gca_avoidance_task,2022.2.4,144.09408761352927,
positions.xlsx,stimuli.xlsx,stimuli/Social2.png,stimuli/Social1.png,stimuli/Nonsocial2.png,stimuli/Nonsocial1.png,cs_minus_ns,,,,,,,0,0,0,0,,,,,,,,,,,,,,,,,5,2,22,3,,,,,,,,,,,,,,,,,,,,,,,2630.2735417999793,5,2.2017516000196338,2.903189299860969,40,D,2023-12-20_14h41.13.280,gca_avoidance_task,2022.2.4,144.09408761352927,
positions.xlsx,stimuli.xlsx,stimuli/Social2.png,stimuli/Social1.png,stimuli/Nonsocial2.png,stimuli/Nonsocial1.png,cs_plus_ns,,,,,,,0,0,0,0,,,,,,,,,,,,,,,,,5,3,23,1,,,,,,,,,,,,,,,,,,,,,,,2645.2868791001383,4,0.014340699883177876,0.24351559998467565,40,D,2023-12-20_14h41.13.280,gca_avoidance_task,2022.2.4,144.09408761352927,
positions.xlsx,stimuli.xlsx,stimuli/Social2.png,stimuli/Social1.png,stimuli/Nonsocial2.png,stimuli/Nonsocial1.png,cs_plus_s,,,,,,,0,0,0,0,,,,,,,,,,,,,,,,,6,0,24,0,,,,,,,,,,,,,,,,,,,,,,,2660.5709953999612,3,0.01368740014731884,5.798905899981037,40,D,2023-12-20_14h41.13.280,gca_avoidance_task,2022.2.4,144.09408761352927,
positions.xlsx,stimuli.xlsx,stimuli/Social2.png,stimuli/Social1.png,stimuli/Nonsocial2.png,stimuli/Nonsocial1.png,cs_minus_ns,,,,,,,0,0,0,0,,,,,,,,,,,,,,,,,6,1,25,3,,,,,,,,,,,,,,,,,,,,,,,2675.6398474001326,8,0.16011269995942712,1.1530603000428528,40,D,2023-12-20_14h41.13.280,gca_avoidance_task,2022.2.4,144.09408761352927,
positions.xlsx,stimuli.xlsx,stimuli/Social2.png,stimuli/Social1.png,stimuli/Nonsocial2.png,stimuli/Nonsocial1.png,cs_plus_ns,,,,,,,0,0,0,0,,,,,,,,,,,,,,,,,6,2,26,1,,,,,,,,,,,,,,,,,,,,,,,2690.7850848999806,7,0.014669399941340089,0.9239646999631077,40,D,2023-12-20_14h41.13.280,gca_avoidance_task,2022.2.4,144.09408761352927,
positions.xlsx,stimuli.xlsx,stimuli/Social2.png,stimuli/Social1.png,stimuli/Nonsocial2.png,stimuli/Nonsocial1.png,cs_minus_s,,,,,,,0,0,0,0,,,,,,,,,,,,,,,,,6,3,27,2,,,,,,,,,,,,,,,,,,,,,,,2706.291444099974,4,0.25035910005681217,4.291936399880797,40,D,2023-12-20_14h41.13.280,gca_avoidance_task,2022.2.4,144.09408761352927,
positions.xlsx,stimuli.xlsx,stimuli/Social2.png,stimuli/Social1.png,stimuli/Nonsocial2.png,stimuli/Nonsocial1.png,cs_plus_s,,,,,,,0,0,0,0,,,,,,,,,,,,,,,,,7,0,28,0,,,,,,,,,,,,,,,,,,,,,,,2721.5130716999993,6,0.3337681000120938,1.028243799926713,40,D,2023-12-20_14h41.13.280,gca_avoidance_task,2022.2.4,144.09408761352927,
positions.xlsx,stimuli.xlsx,stimuli/Social2.png,stimuli/Social1.png,stimuli/Nonsocial2.png,stimuli/Nonsocial1.png,cs_plus_ns,,,,,,,0,0,0,0,,,,,,,,,,,,,,,,,7,1,29,1,,,,,,,,,,,,,,,,,,,,,,,2736.7763773000333,5,0.014065899886190891,1.27120289998129,40,D,2023-12-20_14h41.13.280,gca_avoidance_task,2022.2.4,144.09408761352927,
positions.xlsx,stimuli.xlsx,stimuli/Social2.png,stimuli/Social1.png,stimuli/Nonsocial2.png,stimuli/Nonsocial1.png,cs_minus_ns,,,,,,,0,0,0,0,,,,,,,,,,,,,,,,,7,2,30,3,,,,,,,,,,,,,,,,,,,,,,,2751.956295599928,3,0.014135499950498343,0.9171523000113666,40,D,2023-12-20_14h41.13.280,gca_avoidance_task,2022.2.4,144.09408761352927,
positions.xlsx,stimuli.xlsx,stimuli/Social2.png,stimuli/Social1.png,stimuli/Nonsocial2.png,stimuli/Nonsocial1.png,cs_minus_s,,,,,,,0,0,0,0,,,,,,,,,,,,,,,,,7,3,31,2,,,,,,,,,,,,,,,,,,,,,,,2767.2335328999907,5,0.01360130007378757,4.875010400079191,40,D,2023-12-20_14h41.13.280,gca_avoidance_task,2022.2.4,144.09408761352927,
positions.xlsx,stimuli.xlsx,stimuli/Social2.png,stimuli/Social1.png,stimuli/Nonsocial2.png,stimuli/Nonsocial1.png,cs_plus_s,,,,,,,0,0,0,0,,,,,,,,,,,,,,,,,8,0,32,0,,,,,,,,,,,,,,,,,,,,,,,2782.0732474001125,3,0.37534969998523593,1.583614100003615,40,D,2023-12-20_14h41.13.280,gca_avoidance_task,2022.2.4,144.09408761352927,
positions.xlsx,stimuli.xlsx,stimuli/Social2.png,stimuli/Social1.png,stimuli/Nonsocial2.png,stimuli/Nonsocial1.png,cs_plus_ns,,,,,,,0,0,0,0,,,,,,,,,,,,,,,,,8,1,33,1,,,,,,,,,,,,,,,,,,,,,,,2796.9407188999467,6,0.2226358000189066,2.6183597000781447,40,D,2023-12-20_14h41.13.280,gca_avoidance_task,2022.2.4,144.09408761352927,
positions.xlsx,stimuli.xlsx,stimuli/Social2.png,stimuli/Social1.png,stimuli/Nonsocial2.png,stimuli/Nonsocial1.png,cs_minus_s,,,,,,,0,0,0,0,,,,,,,,,,,,,,,,,8,2,34,2,,,,,,,,,,,,,,,,,,,,,,,2811.5581899001263,9,0.299046500120312,1.3615701000671834,40,D,2023-12-20_14h41.13.280,gca_avoidance_task,2022.2.4,144.09408761352927,
positions.xlsx,stimuli.xlsx,stimuli/Social2.png,stimuli/Social1.png,stimuli/Nonsocial2.png,stimuli/Nonsocial1.png,cs_minus_ns,,,,,,,0,0,0,0,,,,,,,,,,,,,,,,,8,3,35,3,,,,,,,,,,,,,,,,,,,,,,,2826.2729038000107,9,0.015398599905893207,1.8960745998192579,40,D,2023-12-20_14h41.13.280,gca_avoidance_task,2022.2.4,144.09408761352927,
positions.xlsx,stimuli.xlsx,stimuli/Social2.png,stimuli/Social1.png,stimuli/Nonsocial2.png,stimuli/Nonsocial1.png,cs_minus_s,,,,,,,0,0,0,0,,,,,,,,,,,,,,,,,9,0,36,2,,,,,,,,,,,,,,,,,,,,,,,2841.550086000003,3,0.31285640015266836,3.875193500192836,40,D,2023-12-20_14h41.13.280,gca_avoidance_task,2022.2.4,144.09408761352927,
positions.xlsx,stimuli.xlsx,stimuli/Social2.png,stimuli/Social1.png,stimuli/Nonsocial2.png,stimuli/Nonsocial1.png,cs_plus_ns,,,,,,,0,0,0,0,,,,,,,,,,,,,,,,,9,1,37,1,,,,,,,,,,,,,,,,,,,,,,,2856.403680999996,2,0.014823799952864647,3.1740681000519544,40,D,2023-12-20_14h41.13.280,gca_avoidance_task,2022.2.4,144.09408761352927,
positions.xlsx,stimuli.xlsx,stimuli/Social2.png,stimuli/Social1.png,stimuli/Nonsocial2.png,stimuli/Nonsocial1.png,cs_plus_s,,,,,,,0,0,0,0,,,,,,,,,,,,,,,,,9,2,38,0,,,,,,,,,,,,,,,,,,,,,,,2871.8266968999524,4,0.013440199894830585,5.104248099960387,40,D,2023-12-20_14h41.13.280,gca_avoidance_task,2022.2.4,144.09408761352927,
positions.xlsx,stimuli.xlsx,stimuli/Social2.png,stimuli/Social1.png,stimuli/Nonsocial2.png,stimuli/Nonsocial1.png,cs_minus_ns,,,,,,,0,0,0,0,,,,,,,,,,,,,,,,,9,3,39,3,,,,,,,,,,,,,,,,,,,,,,,2887.319137700135,4,0.014294900000095367,5.201478000031784,40,D,2023-12-20_14h41.13.280,gca_avoidance_task,2022.2.4,144.09408761352927,
positions.xlsx,stimuli.xlsx,stimuli/Social2.png,stimuli/Social1.png,stimuli/Nonsocial2.png,stimuli/Nonsocial1.png,cs_minus_ns,,,,,,,0,0,0,0,,,,,,,,,,,,,,,,,,,,,0,0,0,3,,,,,2901.1172275000717,9.0,3.808479900006205,,,,,,,,,,,,,,,,40,D,2023-12-20_14h41.13.280,gca_avoidance_task,2022.2.4,144.09408761352927,
positions.xlsx,stimuli.xlsx,stimuli/Social2.png,stimuli/Social1.png,stimuli/Nonsocial2.png,stimuli/Nonsocial1.png,cs_plus_ns,,,,,,,0,0,0,0,,,,,,,,,,,,,,,,,,,,,0,1,1,1,,,,,2905.8948641000316,3.0,1.5472520000766963,,,,,,,,,,,,,,,,40,D,2023-12-20_14h41.13.280,gca_avoidance_task,2022.2.4,144.09408761352927,
positions.xlsx,stimuli.xlsx,stimuli/Social2.png,stimuli/Social1.png,stimuli/Nonsocial2.png,stimuli/Nonsocial1.png,cs_minus_s,,,,,,,0,0,0,0,,,,,,,,,,,,,,,,,,,,,0,2,2,2,,,,,2908.457223900128,9.0,1.5636632000096142,,,,,,,,,,,,,,,,40,D,2023-12-20_14h41.13.280,gca_avoidance_task,2022.2.4,144.09408761352927,
positions.xlsx,stimuli.xlsx,stimuli/Social2.png,stimuli/Social1.png,stimuli/Nonsocial2.png,stimuli/Nonsocial1.png,cs_plus_s,,,,,,,0,0,0,0,,,,,,,,,,,,,,,,,,,,,0,3,3,0,,,,,2910.082141299965,2.0,1.0977875001262873,,,,,,,,,,,,,,,,40,D,2023-12-20_14h41.13.280,gca_avoidance_task,2022.2.4,144.09408761352927,
