posFile,stimFile,cs_plus_s,cs_minus_s,cs_plus_ns,cs_minus_ns,stimtype,position,trialtype,trials_threshold.thisRepN,trials_threshold.thisTrialN,trials_threshold.thisN,trials_threshold.thisIndex,blocks.thisRepN,blocks.thisTrialN,blocks.thisN,blocks.thisIndex,ratingtrials1.thisRepN,ratingtrials1.thisTrialN,ratingtrials1.thisN,ratingtrials1.thisIndex,learning_trials.thisRepN,learning_trials.thisTrialN,learning_trials.thisN,learning_trials.thisIndex,trials.thisRepN,trials.thisTrialN,trials.thisN,trials.thisIndex,ratingtrials2.thisRepN,ratingtrials2.thisTrialN,ratingtrials2.thisN,ratingtrials2.thisIndex,testtrials.thisRepN,testtrials.thisTrialN,testtrials.thisN,testtrials.thisIndex,ratingtrials3.thisRepN,ratingtrials3.thisTrialN,ratingtrials3.thisN,ratingtrials3.thisIndex,textStart.started,sliderPainT.response,sliderPainT.rt,textStartExp.started,imageRating.started,sliderStim.response,sliderStim.rt,textStartTask.started,image.started,score,outcome,roi.numLooks,roi.timesOn,roi.timesOff,imageFeedback.started,sliderPain.response,sliderPain.rt,textTestInstr.started,imageTest.started,roiTest.numLooks,roiTest.timesOn,roiTest.timesOff,participant,group,date,expName,psychopyVersion,frameRate,
,,,,,,,,,0,0,0,0,,,,,,,,,,,,,,,,,,,,,,,,,,,,,876.2727041000035,None,None,,,,,,,,,,,,,,,,,,,,39,A,2023-12-20_13h11.42.618,gca_avoidance_task,2022.2.4,143.63441026039473,
,,,,,,,,,1,0,1,0,,,,,,,,,,,,,,,,,,,,,,,,,,,,,,1.0,11.894067900022492,,,,,,,,,,,,,,,,,,,,39,A,2023-12-20_13h11.42.618,gca_avoidance_task,2022.2.4,143.63441026039473,
,,,,,,,,,2,0,2,0,,,,,,,,,,,,,,,,,,,,,,,,,,,,,,1.0,1.3687072000466287,,,,,,,,,,,,,,,,,,,,39,A,2023-12-20_13h11.42.618,gca_avoidance_task,2022.2.4,143.63441026039473,
,,,,,,,,,3,0,3,0,,,,,,,,,,,,,,,,,,,,,,,,,,,,,,1.0,1.3183202999643981,,,,,,,,,,,,,,,,,,,,39,A,2023-12-20_13h11.42.618,gca_avoidance_task,2022.2.4,143.63441026039473,
,,,,,,,,,4,0,4,0,,,,,,,,,,,,,,,,,,,,,,,,,,,,,,1.0,1.4331330999266356,,,,,,,,,,,,,,,,,,,,39,A,2023-12-20_13h11.42.618,gca_avoidance_task,2022.2.4,143.63441026039473,
,,,,,,,,,5,0,5,0,,,,,,,,,,,,,,,,,,,,,,,,,,,,,,1.0,3.149728399934247,,,,,,,,,,,,,,,,,,,,39,A,2023-12-20_13h11.42.618,gca_avoidance_task,2022.2.4,143.63441026039473,
,,,,,,,,,6,0,6,0,,,,,,,,,,,,,,,,,,,,,,,,,,,,,,2.0,1.1328340999316424,,,,,,,,,,,,,,,,,,,,39,A,2023-12-20_13h11.42.618,gca_avoidance_task,2022.2.4,143.63441026039473,
,,,,,,,,,7,0,7,0,,,,,,,,,,,,,,,,,,,,,,,,,,,,,,2.0,1.2670341001357883,,,,,,,,,,,,,,,,,,,,39,A,2023-12-20_13h11.42.618,gca_avoidance_task,2022.2.4,143.63441026039473,
,,,,,,,,,8,0,8,0,,,,,,,,,,,,,,,,,,,,,,,,,,,,,,2.0,1.7616252999287099,,,,,,,,,,,,,,,,,,,,39,A,2023-12-20_13h11.42.618,gca_avoidance_task,2022.2.4,143.63441026039473,
,,,,,,,,,9,0,9,0,,,,,,,,,,,,,,,,,,,,,,,,,,,,,,3.0,1.0270704000722617,,,,,,,,,,,,,,,,,,,,39,A,2023-12-20_13h11.42.618,gca_avoidance_task,2022.2.4,143.63441026039473,
,,,,,,,,,10,0,10,0,,,,,,,,,,,,,,,,,,,,,,,,,,,,,,3.0,0.8754638000391424,,,,,,,,,,,,,,,,,,,,39,A,2023-12-20_13h11.42.618,gca_avoidance_task,2022.2.4,143.63441026039473,
,,,,,,,,,11,0,11,0,,,,,,,,,,,,,,,,,,,,,,,,,,,,,,3.0,0.8550342000089586,,,,,,,,,,,,,,,,,,,,39,A,2023-12-20_13h11.42.618,gca_avoidance_task,2022.2.4,143.63441026039473,
,,,,,,,,,12,0,12,0,,,,,,,,,,,,,,,,,,,,,,,,,,,,,,3.0,1.2650905000045896,,,,,,,,,,,,,,,,,,,,39,A,2023-12-20_13h11.42.618,gca_avoidance_task,2022.2.4,143.63441026039473,
,,,,,,,,,13,0,13,0,,,,,,,,,,,,,,,,,,,,,,,,,,,,,,3.0,1.0081122000701725,,,,,,,,,,,,,,,,,,,,39,A,2023-12-20_13h11.42.618,gca_avoidance_task,2022.2.4,143.63441026039473,
,,,,,,,,,14,0,14,0,,,,,,,,,,,,,,,,,,,,,,,,,,,,,,3.0,1.0081128999590874,,,,,,,,,,,,,,,,,,,,39,A,2023-12-20_13h11.42.618,gca_avoidance_task,2022.2.4,143.63441026039473,
,,,,,,,,,15,0,15,0,,,,,,,,,,,,,,,,,,,,,,,,,,,,,,3.0,1.0694343999493867,,,,,,,,,,,,,,,,,,,,39,A,2023-12-20_13h11.42.618,gca_avoidance_task,2022.2.4,143.63441026039473,
,,,,,,,,,16,0,16,0,,,,,,,,,,,,,,,,,,,,,,,,,,,,,,4.0,1.1057152999565005,,,,,,,,,,,,,,,,,,,,39,A,2023-12-20_13h11.42.618,gca_avoidance_task,2022.2.4,143.63441026039473,
,,,,,,,,,17,0,17,0,,,,,,,,,,,,,,,,,,,,,,,,,,,,,,4.0,0.7671299998182803,,,,,,,,,,,,,,,,,,,,39,A,2023-12-20_13h11.42.618,gca_avoidance_task,2022.2.4,143.63441026039473,
,,,,,,,,,18,0,18,0,,,,,,,,,,,,,,,,,,,,,,,,,,,,,,4.0,2.4341921999584883,,,,,,,,,,,,,,,,,,,,39,A,2023-12-20_13h11.42.618,gca_avoidance_task,2022.2.4,143.63441026039473,
,,,,,,,,,19,0,19,0,,,,,,,,,,,,,,,,,,,,,,,,,,,,,,5.0,0.7834882000461221,,,,,,,,,,,,,,,,,,,,39,A,2023-12-20_13h11.42.618,gca_avoidance_task,2022.2.4,143.63441026039473,
,,,,,,,,,20,0,20,0,,,,,,,,,,,,,,,,,,,,,,,,,,,,,,5.0,1.0543951999861747,,,,,,,,,,,,,,,,,,,,39,A,2023-12-20_13h11.42.618,gca_avoidance_task,2022.2.4,143.63441026039473,
,,,,,,,,,21,0,21,0,,,,,,,,,,,,,,,,,,,,,,,,,,,,,,6.0,1.0019310999196023,,,,,,,,,,,,,,,,,,,,39,A,2023-12-20_13h11.42.618,gca_avoidance_task,2022.2.4,143.63441026039473,
,,,,,,,,,22,0,22,0,,,,,,,,,,,,,,,,,,,,,,,,,,,,,,6.0,1.144863700028509,,,,,,,,,,,,,,,,,,,,39,A,2023-12-20_13h11.42.618,gca_avoidance_task,2022.2.4,143.63441026039473,
,,,,,,,,,23,0,23,0,,,,,,,,,,,,,,,,,,,,,,,,,,,,,,6.0,1.7175410001073033,,,,,,,,,,,,,,,,,,,,39,A,2023-12-20_13h11.42.618,gca_avoidance_task,2022.2.4,143.63441026039473,
,,,,,,,,,24,0,24,0,,,,,,,,,,,,,,,,,,,,,,,,,,,,,,7.0,0.7357173999771476,,,,,,,,,,,,,,,,,,,,39,A,2023-12-20_13h11.42.618,gca_avoidance_task,2022.2.4,143.63441026039473,
,,,,,,,,,25,0,25,0,,,,,,,,,,,,,,,,,,,,,,,,,,,,,,6.0,3.0633982000872493,,,,,,,,,,,,,,,,,,,,39,A,2023-12-20_13h11.42.618,gca_avoidance_task,2022.2.4,143.63441026039473,
,,,,,,,,,26,0,26,0,,,,,,,,,,,,,,,,,,,,,,,,,,,,,,6.0,1.8776768001262099,,,,,,,,,,,,,,,,,,,,39,A,2023-12-20_13h11.42.618,gca_avoidance_task,2022.2.4,143.63441026039473,
,,,,,,,,,27,0,27,0,,,,,,,,,,,,,,,,,,,,,,,,,,,,,,6.0,4.1054444999899715,,,,,,,,,,,,,,,,,,,,39,A,2023-12-20_13h11.42.618,gca_avoidance_task,2022.2.4,143.63441026039473,
,,,,,,,,,28,0,28,0,,,,,,,,,,,,,,,,,,,,,,,,,,,,,,6.0,3.950722699984908,,,,,,,,,,,,,,,,,,,,39,A,2023-12-20_13h11.42.618,gca_avoidance_task,2022.2.4,143.63441026039473,
,,,,,,,,,29,0,29,0,,,,,,,,,,,,,,,,,,,,,,,,,,,,,,7.0,4.837436999892816,,,,,,,,,,,,,,,,,,,,39,A,2023-12-20_13h11.42.618,gca_avoidance_task,2022.2.4,143.63441026039473,
,,,,,,,,,30,0,30,0,,,,,,,,,,,,,,,,,,,,,,,,,,,,,,6.0,4.938396700192243,,,,,,,,,,,,,,,,,,,,39,A,2023-12-20_13h11.42.618,gca_avoidance_task,2022.2.4,143.63441026039473,
,,,,,,,,,31,0,31,0,,,,,,,,,,,,,,,,,,,,,,,,,,,,,,5.0,0.8323663999326527,,,,,,,,,,,,,,,,,,,,39,A,2023-12-20_13h11.42.618,gca_avoidance_task,2022.2.4,143.63441026039473,
,,,,,,,,,32,0,32,0,,,,,,,,,,,,,,,,,,,,,,,,,,,,,,5.0,3.7064399998635054,,,,,,,,,,,,,,,,,,,,39,A,2023-12-20_13h11.42.618,gca_avoidance_task,2022.2.4,143.63441026039473,
,,,,,,,,,33,0,33,0,,,,,,,,,,,,,,,,,,,,,,,,,,,,,,5.0,4.332604499999434,,,,,,,,,,,,,,,,,,,,39,A,2023-12-20_13h11.42.618,gca_avoidance_task,2022.2.4,143.63441026039473,
,,,,,,,,,34,0,34,0,,,,,,,,,,,,,,,,,,,,,,,,,,,,,,6.0,0.9529265998862684,,,,,,,,,,,,,,,,,,,,39,A,2023-12-20_13h11.42.618,gca_avoidance_task,2022.2.4,143.63441026039473,
,,,,,,,,,35,0,35,0,,,,,,,,,,,,,,,,,,,,,,,,,,,,,,4.0,5.3416661999654025,,,,,,,,,,,,,,,,,,,,39,A,2023-12-20_13h11.42.618,gca_avoidance_task,2022.2.4,143.63441026039473,
,,,,,,,,,36,0,36,0,,,,,,,,,,,,,,,,,,,,,,,,,,,,,,5.0,1.3432593999896199,,,,,,,,,,,,,,,,,,,,39,A,2023-12-20_13h11.42.618,gca_avoidance_task,2022.2.4,143.63441026039473,
,,,,,,,,,37,0,37,0,,,,,,,,,,,,,,,,,,,,,,,,,,,,,,5.0,2.1200288999825716,,,,,,,,,,,,,,,,,,,,39,A,2023-12-20_13h11.42.618,gca_avoidance_task,2022.2.4,143.63441026039473,
,,,,,,,,,38,0,38,0,,,,,,,,,,,,,,,,,,,,,,,,,,,,,,6.0,1.0262773998547345,,,,,,,,,,,,,,,,,,,,39,A,2023-12-20_13h11.42.618,gca_avoidance_task,2022.2.4,143.63441026039473,
,,,,,,,,,39,0,39,0,,,,,,,,,,,,,,,,,,,,,,,,,,,,,,7.0,1.0688832001760602,,,,,,,,,,,,,,,,,,,,39,A,2023-12-20_13h11.42.618,gca_avoidance_task,2022.2.4,143.63441026039473,
,,,,,,,,,40,0,40,0,,,,,,,,,,,,,,,,,,,,,,,,,,,,,,6.0,3.347233099862933,,,,,,,,,,,,,,,,,,,,39,A,2023-12-20_13h11.42.618,gca_avoidance_task,2022.2.4,143.63441026039473,
positions.xlsx,stimuli.xlsx,stimuli/Social1.png,stimuli/Social2.png,stimuli/Nonsocial1.png,stimuli/Nonsocial2.png,cs_minus_s,,,,,,,0,0,0,0,0,0,0,2,,,,,,,,,,,,,,,,,,,,,,,,1484.5951139000244,1526.7886020999867,5.0,13.12600059993565,,,,,,,,,,,,,,,,39,A,2023-12-20_13h11.42.618,gca_avoidance_task,2022.2.4,143.63441026039473,
positions.xlsx,stimuli.xlsx,stimuli/Social1.png,stimuli/Social2.png,stimuli/Nonsocial1.png,stimuli/Nonsocial2.png,cs_plus_ns,,,,,,,0,0,0,0,0,1,1,1,,,,,,,,,,,,,,,,,,,,,,,,,1540.753293500049,4.0,5.353561699856073,,,,,,,,,,,,,,,,39,A,2023-12-20_13h11.42.618,gca_avoidance_task,2022.2.4,143.63441026039473,
positions.xlsx,stimuli.xlsx,stimuli/Social1.png,stimuli/Social2.png,stimuli/Nonsocial1.png,stimuli/Nonsocial2.png,cs_plus_s,,,,,,,0,0,0,0,0,2,2,0,,,,,,,,,,,,,,,,,,,,,,,,,1548.9196353999432,5.0,3.0624726999085397,,,,,,,,,,,,,,,,39,A,2023-12-20_13h11.42.618,gca_avoidance_task,2022.2.4,143.63441026039473,
positions.xlsx,stimuli.xlsx,stimuli/Social1.png,stimuli/Social2.png,stimuli/Nonsocial1.png,stimuli/Nonsocial2.png,cs_minus_ns,,,,,,,0,0,0,0,0,3,3,3,,,,,,,,,,,,,,,,,,,,,,,,,1553.4333669999614,4.0,7.222690199967474,,,,,,,,,,,,,,,,39,A,2023-12-20_13h11.42.618,gca_avoidance_task,2022.2.4,143.63441026039473,
positions.xlsx,stimuli.xlsx,stimuli/Social1.png,stimuli/Social2.png,stimuli/Nonsocial1.png,stimuli/Nonsocial2.png,,"(0.7, 0.5)",cs_plus_ns,,,,,0,0,0,0,,,,,0,0,0,10,,,,,,,,,,,,,,,,,,,,,,,,1561.6482704998925,1587.6819647001103,0,shock,1,0.31323980004526675,0.3132436000742018,1588.0014172999654,,,,,,,,39,A,2023-12-20_13h11.42.618,gca_avoidance_task,2022.2.4,143.63441026039473,
positions.xlsx,stimuli.xlsx,stimuli/Social1.png,stimuli/Social2.png,stimuli/Nonsocial1.png,stimuli/Nonsocial2.png,,"(0.7, 0.5)",cs_minus_s,,,,,0,0,0,0,,,,,0,1,1,6,,,,,,,,,,,,,,,,,,,,,,,,,1596.9941362000536,5,reward,1,0.4795430002268404,0.4795468000229448,1597.48022389994,,,,,,,,39,A,2023-12-20_13h11.42.618,gca_avoidance_task,2022.2.4,143.63441026039473,
positions.xlsx,stimuli.xlsx,stimuli/Social1.png,stimuli/Social2.png,stimuli/Nonsocial1.png,stimuli/Nonsocial2.png,,"(0.7, -0.5)",cs_plus_s,,,,,0,0,0,0,,,,,0,2,2,3,,,,,,,,,,,,,,,,,,,,,,,,,1607.1326075000688,5,shock,1,0.4795232000760734,0.47952710022218525,1607.6187090999447,,,,,,,,39,A,2023-12-20_13h11.42.618,gca_avoidance_task,2022.2.4,143.63441026039473,
positions.xlsx,stimuli.xlsx,stimuli/Social1.png,stimuli/Social2.png,stimuli/Nonsocial1.png,stimuli/Nonsocial2.png,,"(-0.7, -0.5)",cs_plus_ns,,,,,0,0,0,0,,,,,0,3,3,9,,,,,,,,,,,,,,,,,,,,,,,,,1617.9099868999328,5,none,0,,,1622.916732700076,,,,,,,,39,A,2023-12-20_13h11.42.618,gca_avoidance_task,2022.2.4,143.63441026039473,
positions.xlsx,stimuli.xlsx,stimuli/Social1.png,stimuli/Social2.png,stimuli/Nonsocial1.png,stimuli/Nonsocial2.png,,"(0.7, -0.5)",cs_minus_ns,,,,,0,0,0,0,,,,,0,4,4,15,,,,,,,,,,,,,,,,,,,,,,,,,1632.9718710999005,10,reward,1,0.8610169999301434,0.8610206998419017,1633.8398853000253,,,,,,,,39,A,2023-12-20_13h11.42.618,gca_avoidance_task,2022.2.4,143.63441026039473,
positions.xlsx,stimuli.xlsx,stimuli/Social1.png,stimuli/Social2.png,stimuli/Nonsocial1.png,stimuli/Nonsocial2.png,,"(0.7, -0.5)",cs_plus_ns,,,,,0,0,0,0,,,,,0,5,5,11,,,,,,,,,,,,,,,,,,,,,,,,,1643.2215253000613,10,none,0,,,1648.228193799965,,,,,,,,39,A,2023-12-20_13h11.42.618,gca_avoidance_task,2022.2.4,143.63441026039473,
positions.xlsx,stimuli.xlsx,stimuli/Social1.png,stimuli/Social2.png,stimuli/Nonsocial1.png,stimuli/Nonsocial2.png,,"(-0.7, 0.5)",cs_plus_s,,,,,0,0,0,0,,,,,0,6,6,0,,,,,,,,,,,,,,,,,,,,,,,,,1658.2278181000147,10,shock,1,0.5001186998561025,0.5001221999991685,1658.7277647000737,,,,,,,,39,A,2023-12-20_13h11.42.618,gca_avoidance_task,2022.2.4,143.63441026039473,
positions.xlsx,stimuli.xlsx,stimuli/Social1.png,stimuli/Social2.png,stimuli/Nonsocial1.png,stimuli/Nonsocial2.png,,"(-0.7, -0.5)",cs_plus_s,,,,,0,0,0,0,,,,,0,7,7,1,,,,,,,,,,,,,,,,,,,,,,,,,1668.0398931999225,10,none,0,,,1673.0466903999913,,,,,,,,39,A,2023-12-20_13h11.42.618,gca_avoidance_task,2022.2.4,143.63441026039473,
positions.xlsx,stimuli.xlsx,stimuli/Social1.png,stimuli/Social2.png,stimuli/Nonsocial1.png,stimuli/Nonsocial2.png,,"(-0.7, -0.5)",cs_minus_s,,,,,0,0,0,0,,,,,0,8,8,5,,,,,,,,,,,,,,,,,,,,,,,,,1682.7893616000656,15,reward,1,0.5908059999346733,0.5908094998449087,1683.3865881999955,,,,,,,,39,A,2023-12-20_13h11.42.618,gca_avoidance_task,2022.2.4,143.63441026039473,
positions.xlsx,stimuli.xlsx,stimuli/Social1.png,stimuli/Social2.png,stimuli/Nonsocial1.png,stimuli/Nonsocial2.png,,"(-0.7, 0.5)",cs_minus_ns,,,,,0,0,0,0,,,,,0,9,9,12,,,,,,,,,,,,,,,,,,,,,,,,,1693.5736318000127,20,reward,1,0.7571572000160813,0.7571608000434935,1694.3375285998918,,,,,,,,39,A,2023-12-20_13h11.42.618,gca_avoidance_task,2022.2.4,143.63441026039473,
positions.xlsx,stimuli.xlsx,stimuli/Social1.png,stimuli/Social2.png,stimuli/Nonsocial1.png,stimuli/Nonsocial2.png,,"(0.7, 0.5)",cs_minus_ns,,,,,0,0,0,0,,,,,0,10,10,14,,,,,,,,,,,,,,,,,,,,,,,,,1704.7954553000163,25,reward,1,0.9933344998862594,0.9933380999136716,1705.7954007000662,,,,,,,,39,A,2023-12-20_13h11.42.618,gca_avoidance_task,2022.2.4,143.63441026039473,
positions.xlsx,stimuli.xlsx,stimuli/Social1.png,stimuli/Social2.png,stimuli/Nonsocial1.png,stimuli/Nonsocial2.png,,"(0.7, -0.5)",cs_minus_s,,,,,0,0,0,0,,,,,0,11,11,7,,,,,,,,,,,,,,,,,,,,,,,,,1715.5033007001039,30,reward,1,0.6329268999397755,0.6329306999687105,1716.1422019999009,,,,,,,,39,A,2023-12-20_13h11.42.618,gca_avoidance_task,2022.2.4,143.63441026039473,
positions.xlsx,stimuli.xlsx,stimuli/Social1.png,stimuli/Social2.png,stimuli/Nonsocial1.png,stimuli/Nonsocial2.png,,"(-0.7, -0.5)",cs_minus_ns,,,,,0,0,0,0,,,,,0,12,12,13,,,,,,,,,,,,,,,,,,,,,,,,,1725.8987497999333,35,reward,1,0.6461533000692725,0.6461569999810308,1726.5515107000247,,,,,,,,39,A,2023-12-20_13h11.42.618,gca_avoidance_task,2022.2.4,143.63441026039473,
positions.xlsx,stimuli.xlsx,stimuli/Social1.png,stimuli/Social2.png,stimuli/Nonsocial1.png,stimuli/Nonsocial2.png,,"(0.7, 0.5)",cs_plus_s,,,,,0,0,0,0,,,,,0,13,13,2,,,,,,,,,,,,,,,,,,,,,,,,,1735.995581700001,35,none,0,,,1741.002323700115,,,,,,,,39,A,2023-12-20_13h11.42.618,gca_avoidance_task,2022.2.4,143.63441026039473,
positions.xlsx,stimuli.xlsx,stimuli/Social1.png,stimuli/Social2.png,stimuli/Nonsocial1.png,stimuli/Nonsocial2.png,,"(-0.7, 0.5)",cs_minus_s,,,,,0,0,0,0,,,,,0,14,14,4,,,,,,,,,,,,,,,,,,,,,,,,,1750.7449833999854,40,reward,1,0.6181619998533279,0.61816559988074,1751.369998200098,,,,,,,,39,A,2023-12-20_13h11.42.618,gca_avoidance_task,2022.2.4,143.63441026039473,
positions.xlsx,stimuli.xlsx,stimuli/Social1.png,stimuli/Social2.png,stimuli/Nonsocial1.png,stimuli/Nonsocial2.png,,"(-0.7, 0.5)",cs_plus_ns,,,,,0,0,0,0,,,,,0,15,15,8,,,,,,,,,,,,,,,,,,,,,,,,,1760.543226199923,40,none,0,,,1765.5500566000119,,,,,,,,39,A,2023-12-20_13h11.42.618,gca_avoidance_task,2022.2.4,143.63441026039473,
positions.xlsx,stimuli.xlsx,stimuli/Social1.png,stimuli/Social2.png,stimuli/Nonsocial1.png,stimuli/Nonsocial2.png,,"(-0.7, 0.5)",cs_minus_ns,,,,,0,0,0,0,,,,,1,0,16,12,,,,,,,,,,,,,,,,,,,,,,,,,1774.9662599998992,45,reward,1,0.597133900038898,0.5971375999506563,1775.5704365000129,,,,,,,,39,A,2023-12-20_13h11.42.618,gca_avoidance_task,2022.2.4,143.63441026039473,
positions.xlsx,stimuli.xlsx,stimuli/Social1.png,stimuli/Social2.png,stimuli/Nonsocial1.png,stimuli/Nonsocial2.png,,"(0.7, 0.5)",cs_plus_ns,,,,,0,0,0,0,,,,,1,1,17,10,,,,,,,,,,,,,,,,,,,,,,,,,1784.632541500032,45,none,0,,,1789.6393106000032,,,,,,,,39,A,2023-12-20_13h11.42.618,gca_avoidance_task,2022.2.4,143.63441026039473,
positions.xlsx,stimuli.xlsx,stimuli/Social1.png,stimuli/Social2.png,stimuli/Nonsocial1.png,stimuli/Nonsocial2.png,,"(-0.7, 0.5)",cs_plus_ns,,,,,0,0,0,0,,,,,1,2,18,8,,,,,,,,,,,,,,,,,,,,,,,,,1799.6388922999613,45,none,0,,,1804.6456476000603,,,,,,,,39,A,2023-12-20_13h11.42.618,gca_avoidance_task,2022.2.4,143.63441026039473,
positions.xlsx,stimuli.xlsx,stimuli/Social1.png,stimuli/Social2.png,stimuli/Nonsocial1.png,stimuli/Nonsocial2.png,,"(-0.7, -0.5)",cs_plus_s,,,,,0,0,0,0,,,,,1,3,19,1,,,,,,,,,,,,,,,,,,,,,,,,,1813.9786612000316,45,none,0,,,1818.9853660999797,,,,,,,,39,A,2023-12-20_13h11.42.618,gca_avoidance_task,2022.2.4,143.63441026039473,
positions.xlsx,stimuli.xlsx,stimuli/Social1.png,stimuli/Social2.png,stimuli/Nonsocial1.png,stimuli/Nonsocial2.png,,"(0.7, 0.5)",cs_minus_ns,,,,,0,0,0,0,,,,,1,4,20,14,,,,,,,,,,,,,,,,,,,,,,,,,1828.061409200076,50,reward,1,0.4447231001686305,0.4447268999647349,1828.5128240999766,,,,,,,,39,A,2023-12-20_13h11.42.618,gca_avoidance_task,2022.2.4,143.63441026039473,
positions.xlsx,stimuli.xlsx,stimuli/Social1.png,stimuli/Social2.png,stimuli/Nonsocial1.png,stimuli/Nonsocial2.png,,"(0.7, -0.5)",cs_plus_ns,,,,,0,0,0,0,,,,,1,5,21,11,,,,,,,,,,,,,,,,,,,,,,,,,1837.9290915001184,50,none,0,,,1842.9358667000197,,,,,,,,39,A,2023-12-20_13h11.42.618,gca_avoidance_task,2022.2.4,143.63441026039473,
positions.xlsx,stimuli.xlsx,stimuli/Social1.png,stimuli/Social2.png,stimuli/Nonsocial1.png,stimuli/Nonsocial2.png,,"(0.7, -0.5)",cs_plus_s,,,,,0,0,0,0,,,,,1,6,22,3,,,,,,,,,,,,,,,,,,,,,,,,,1852.234061700059,50,none,0,,,1857.2408489000518,,,,,,,,39,A,2023-12-20_13h11.42.618,gca_avoidance_task,2022.2.4,143.63441026039473,
positions.xlsx,stimuli.xlsx,stimuli/Social1.png,stimuli/Social2.png,stimuli/Nonsocial1.png,stimuli/Nonsocial2.png,,"(-0.7, 0.5)",cs_minus_s,,,,,0,0,0,0,,,,,1,7,23,4,,,,,,,,,,,,,,,,,,,,,,,,,1867.2820902999956,55,reward,1,0.2571250000037253,0.25712860003113747,1867.5460228000302,,,,,,,,39,A,2023-12-20_13h11.42.618,gca_avoidance_task,2022.2.4,143.63441026039473,
positions.xlsx,stimuli.xlsx,stimuli/Social1.png,stimuli/Social2.png,stimuli/Nonsocial1.png,stimuli/Nonsocial2.png,,"(-0.7, -0.5)",cs_minus_ns,,,,,0,0,0,0,,,,,1,8,24,13,,,,,,,,,,,,,,,,,,,,,,,,,1877.3233690999914,60,reward,1,0.5559819999616593,0.5559857999905944,1877.8858771000523,,,,,,,,39,A,2023-12-20_13h11.42.618,gca_avoidance_task,2022.2.4,143.63441026039473,
positions.xlsx,stimuli.xlsx,stimuli/Social1.png,stimuli/Social2.png,stimuli/Nonsocial1.png,stimuli/Nonsocial2.png,,"(-0.7, 0.5)",cs_plus_s,,,,,0,0,0,0,,,,,1,9,25,0,,,,,,,,,,,,,,,,,,,,,,,,,1887.1771394000389,60,none,0,,,1892.1838976000436,,,,,,,,39,A,2023-12-20_13h11.42.618,gca_avoidance_task,2022.2.4,143.63441026039473,
positions.xlsx,stimuli.xlsx,stimuli/Social1.png,stimuli/Social2.png,stimuli/Nonsocial1.png,stimuli/Nonsocial2.png,,"(0.7, 0.5)",cs_plus_s,,,,,0,0,0,0,,,,,1,10,26,2,,,,,,,,,,,,,,,,,,,,,,,,,1901.3154682000168,60,none,0,,,1906.3222346999682,,,,,,,,39,A,2023-12-20_13h11.42.618,gca_avoidance_task,2022.2.4,143.63441026039473,
positions.xlsx,stimuli.xlsx,stimuli/Social1.png,stimuli/Social2.png,stimuli/Nonsocial1.png,stimuli/Nonsocial2.png,,"(0.7, 0.5)",cs_minus_s,,,,,0,0,0,0,,,,,1,11,27,6,,,,,,,,,,,,,,,,,,,,,,,,,1915.7385517999064,65,reward,1,0.8819778999313712,0.8819814999587834,1916.6273918000516,,,,,,,,39,A,2023-12-20_13h11.42.618,gca_avoidance_task,2022.2.4,143.63441026039473,
positions.xlsx,stimuli.xlsx,stimuli/Social1.png,stimuli/Social2.png,stimuli/Nonsocial1.png,stimuli/Nonsocial2.png,,"(-0.7, -0.5)",cs_plus_ns,,,,,0,0,0,0,,,,,1,12,28,9,,,,,,,,,,,,,,,,,,,,,,,,,1926.1547809999902,65,none,0,,,1931.1615403001197,,,,,,,,39,A,2023-12-20_13h11.42.618,gca_avoidance_task,2022.2.4,143.63441026039473,
positions.xlsx,stimuli.xlsx,stimuli/Social1.png,stimuli/Social2.png,stimuli/Nonsocial1.png,stimuli/Nonsocial2.png,,"(-0.7, -0.5)",cs_minus_s,,,,,0,0,0,0,,,,,1,13,29,5,,,,,,,,,,,,,,,,,,,,,,,,,1940.202840300044,70,reward,1,0.2916977000422776,0.29170150007121265,1940.5014053001069,,,,,,,,39,A,2023-12-20_13h11.42.618,gca_avoidance_task,2022.2.4,143.63441026039473,
positions.xlsx,stimuli.xlsx,stimuli/Social1.png,stimuli/Social2.png,stimuli/Nonsocial1.png,stimuli/Nonsocial2.png,,"(0.7, -0.5)",cs_minus_ns,,,,,0,0,0,0,,,,,1,14,30,15,,,,,,,,,,,,,,,,,,,,,,,,,1950.3066028999165,75,reward,1,0.5765398000366986,0.5765434999484569,1950.8899427000433,,,,,,,,39,A,2023-12-20_13h11.42.618,gca_avoidance_task,2022.2.4,143.63441026039473,
positions.xlsx,stimuli.xlsx,stimuli/Social1.png,stimuli/Social2.png,stimuli/Nonsocial1.png,stimuli/Nonsocial2.png,,"(0.7, -0.5)",cs_minus_s,,,,,0,0,0,0,,,,,1,15,31,7,,,,,,,,,,,,,,,,,,,,,,,,,1960.7228737999685,80,reward,1,0.4305597001221031,0.43056309991516173,1961.1603910000995,,,,,,,,39,A,2023-12-20_13h11.42.618,gca_avoidance_task,2022.2.4,143.63441026039473,
positions.xlsx,stimuli.xlsx,stimuli/Social1.png,stimuli/Social2.png,stimuli/Nonsocial1.png,stimuli/Nonsocial2.png,,"(-0.7, -0.5)",cs_plus_s,,,,,0,0,0,0,,,,,,,,,0,0,0,1,,,,,,,,,,,,,,,,,,,,,1989.5550748000387,80,shock,1,1.784925099927932,1.784928899956867,1991.3466942999512,,,,,,,,39,A,2023-12-20_13h11.42.618,gca_avoidance_task,2022.2.4,143.63441026039473,
positions.xlsx,stimuli.xlsx,stimuli/Social1.png,stimuli/Social2.png,stimuli/Nonsocial1.png,stimuli/Nonsocial2.png,,"(0.7, -0.5)",cs_plus_ns,,,,,0,0,0,0,,,,,,,,,0,1,1,11,,,,,,,,,,,,,,,,,,,,,2001.3532287999988,80,shock,1,0.17407419998198748,0.17407800001092255,2001.533772499999,,,,,,,,39,A,2023-12-20_13h11.42.618,gca_avoidance_task,2022.2.4,143.63441026039473,
positions.xlsx,stimuli.xlsx,stimuli/Social1.png,stimuli/Social2.png,stimuli/Nonsocial1.png,stimuli/Nonsocial2.png,,"(0.7, -0.5)",cs_plus_s,,,,,0,0,0,0,,,,,,,,,0,2,2,3,,,,,,,,,,,,,,,,,,,,,2011.165373600088,80,none,0,,,2016.1721167000942,,,,,,,,39,A,2023-12-20_13h11.42.618,gca_avoidance_task,2022.2.4,143.63441026039473,
positions.xlsx,stimuli.xlsx,stimuli/Social1.png,stimuli/Social2.png,stimuli/Nonsocial1.png,stimuli/Nonsocial2.png,,"(0.7, 0.5)",cs_plus_s,,,,,0,0,0,0,,,,,,,,,0,3,3,2,,,,,,,,,,,,,,,,,,,,,2025.0259426999837,80,none,0,,,2030.0326642999426,,,,,,,,39,A,2023-12-20_13h11.42.618,gca_avoidance_task,2022.2.4,143.63441026039473,
positions.xlsx,stimuli.xlsx,stimuli/Social1.png,stimuli/Social2.png,stimuli/Nonsocial1.png,stimuli/Nonsocial2.png,,"(-0.7, -0.5)",cs_minus_ns,,,,,0,0,0,0,,,,,,,,,0,4,4,13,,,,,,,,,,,,,,,,,,,,,2039.2406395999715,85,reward,1,0.4309233999811113,0.43092720001004636,2039.6781526999548,,,,,,,,39,A,2023-12-20_13h11.42.618,gca_avoidance_task,2022.2.4,143.63441026039473,
positions.xlsx,stimuli.xlsx,stimuli/Social1.png,stimuli/Social2.png,stimuli/Nonsocial1.png,stimuli/Nonsocial2.png,,"(-0.7, 0.5)",cs_minus_s,,,,,0,0,0,0,,,,,,,,,0,5,5,4,,,,,,,,,,,,,,,,,,,,,2048.795807000017,90,reward,1,0.5142741999588907,0.5142779999878258,2049.3166239000857,,,,,,,,39,A,2023-12-20_13h11.42.618,gca_avoidance_task,2022.2.4,143.63441026039473,
positions.xlsx,stimuli.xlsx,stimuli/Social1.png,stimuli/Social2.png,stimuli/Nonsocial1.png,stimuli/Nonsocial2.png,,"(0.7, 0.5)",cs_minus_s,,,,,0,0,0,0,,,,,,,,,0,6,6,6,,,,,,,,,,,,,,,,,,,,,2058.962088200031,95,reward,1,0.4655415001325309,0.465545300161466,2059.4343067999,,,,,,,,39,A,2023-12-20_13h11.42.618,gca_avoidance_task,2022.2.4,143.63441026039473,
positions.xlsx,stimuli.xlsx,stimuli/Social1.png,stimuli/Social2.png,stimuli/Nonsocial1.png,stimuli/Nonsocial2.png,,"(-0.7, 0.5)",cs_plus_s,,,,,0,0,0,0,,,,,,,,,0,7,7,0,,,,,,,,,,,,,,,,,,,,,2069.6838871999644,95,none,0,,,2074.690622499911,,,,,,,,39,A,2023-12-20_13h11.42.618,gca_avoidance_task,2022.2.4,143.63441026039473,
positions.xlsx,stimuli.xlsx,stimuli/Social1.png,stimuli/Social2.png,stimuli/Nonsocial1.png,stimuli/Nonsocial2.png,,"(-0.7, -0.5)",cs_minus_s,,,,,0,0,0,0,,,,,,,,,0,8,8,5,,,,,,,,,,,,,,,,,,,,,2084.5583015000448,100,reward,1,0.5559844002127647,0.5628764000721276,2085.1277852999046,,,,,,,,39,A,2023-12-20_13h11.42.618,gca_avoidance_task,2022.2.4,143.63441026039473,
positions.xlsx,stimuli.xlsx,stimuli/Social1.png,stimuli/Social2.png,stimuli/Nonsocial1.png,stimuli/Nonsocial2.png,,"(0.7, -0.5)",cs_minus_s,,,,,0,0,0,0,,,,,,,,,0,9,9,7,,,,,,,,,,,,,,,,,,,,,2095.3565221000463,105,reward,1,0.500302999978885,0.5003068000078201,2095.863441399997,,,,,,,,39,A,2023-12-20_13h11.42.618,gca_avoidance_task,2022.2.4,143.63441026039473,
positions.xlsx,stimuli.xlsx,stimuli/Social1.png,stimuli/Social2.png,stimuli/Nonsocial1.png,stimuli/Nonsocial2.png,,"(-0.7, 0.5)",cs_plus_ns,,,,,0,0,0,0,,,,,,,,,0,10,10,8,,,,,,,,,,,,,,,,,,,,,2105.481146800099,105,none,0,,,2110.4948380999267,,,,,,,,39,A,2023-12-20_13h11.42.618,gca_avoidance_task,2022.2.4,143.63441026039473,
positions.xlsx,stimuli.xlsx,stimuli/Social1.png,stimuli/Social2.png,stimuli/Nonsocial1.png,stimuli/Nonsocial2.png,,"(0.7, 0.5)",cs_minus_ns,,,,,0,0,0,0,,,,,,,,,0,11,11,14,,,,,,,,,,,,,,,,,,,,,2119.924998299917,110,reward,1,0.6332896000239998,0.633293499937281,2120.5639206999913,,,,,,,,39,A,2023-12-20_13h11.42.618,gca_avoidance_task,2022.2.4,143.63441026039473,
positions.xlsx,stimuli.xlsx,stimuli/Social1.png,stimuli/Social2.png,stimuli/Nonsocial1.png,stimuli/Nonsocial2.png,,"(-0.7, 0.5)",cs_minus_ns,,,,,0,0,0,0,,,,,,,,,0,12,12,12,,,,,,,,,,,,,,,,,,,,,2130.396769199986,115,reward,1,0.6111828000284731,0.6111864000558853,2131.0148539000656,,,,,,,,39,A,2023-12-20_13h11.42.618,gca_avoidance_task,2022.2.4,143.63441026039473,
positions.xlsx,stimuli.xlsx,stimuli/Social1.png,stimuli/Social2.png,stimuli/Nonsocial1.png,stimuli/Nonsocial2.png,,"(0.7, -0.5)",cs_minus_ns,,,,,0,0,0,0,,,,,,,,,0,13,13,15,,,,,,,,,,,,,,,,,,,,,2141.11863859999,120,reward,1,0.5626199999824166,0.5626238000113517,2141.688051100122,,,,,,,,39,A,2023-12-20_13h11.42.618,gca_avoidance_task,2022.2.4,143.63441026039473,
positions.xlsx,stimuli.xlsx,stimuli/Social1.png,stimuli/Social2.png,stimuli/Nonsocial1.png,stimuli/Nonsocial2.png,,"(0.7, 0.5)",cs_plus_ns,,,,,0,0,0,0,,,,,,,,,0,14,14,10,,,,,,,,,,,,,,,,,,,,,2151.1598745000083,120,shock,1,0.30614140001125634,0.30614509992301464,2151.4724171001,,,,,,,,39,A,2023-12-20_13h11.42.618,gca_avoidance_task,2022.2.4,143.63441026039473,
positions.xlsx,stimuli.xlsx,stimuli/Social1.png,stimuli/Social2.png,stimuli/Nonsocial1.png,stimuli/Nonsocial2.png,,"(-0.7, -0.5)",cs_plus_ns,,,,,0,0,0,0,,,,,,,,,0,15,15,9,,,,,,,,,,,,,,,,,,,,,2160.840078599984,120,none,0,,,2165.8467876000796,,,,,,,,39,A,2023-12-20_13h11.42.618,gca_avoidance_task,2022.2.4,143.63441026039473,
positions.xlsx,stimuli.xlsx,stimuli/Social1.png,stimuli/Social2.png,stimuli/Nonsocial1.png,stimuli/Nonsocial2.png,,"(0.7, 0.5)",cs_minus_s,,,,,0,0,0,0,,,,,,,,,1,0,16,6,,,,,,,,,,,,,,,,,,,,,2176.172799800057,125,reward,1,0.5557130000088364,0.5557166999205947,2176.73526700004,,,,,,,,39,A,2023-12-20_13h11.42.618,gca_avoidance_task,2022.2.4,143.63441026039473,
positions.xlsx,stimuli.xlsx,stimuli/Social1.png,stimuli/Social2.png,stimuli/Nonsocial1.png,stimuli/Nonsocial2.png,,"(0.7, -0.5)",cs_plus_s,,,,,0,0,0,0,,,,,,,,,1,1,17,3,,,,,,,,,,,,,,,,,,,,,2186.6446060999297,125,none,0,,,2191.6583265000954,,,,,,,,39,A,2023-12-20_13h11.42.618,gca_avoidance_task,2022.2.4,143.63441026039473,
positions.xlsx,stimuli.xlsx,stimuli/Social1.png,stimuli/Social2.png,stimuli/Nonsocial1.png,stimuli/Nonsocial2.png,,"(0.7, -0.5)",cs_minus_ns,,,,,0,0,0,0,,,,,,,,,1,2,18,15,,,,,,,,,,,,,,,,,,,,,2201.8662668000907,130,reward,1,0.660116899991408,0.6601207000203431,2202.5329146999866,,,,,,,,39,A,2023-12-20_13h11.42.618,gca_avoidance_task,2022.2.4,143.63441026039473,
positions.xlsx,stimuli.xlsx,stimuli/Social1.png,stimuli/Social2.png,stimuli/Nonsocial1.png,stimuli/Nonsocial2.png,,"(-0.7, -0.5)",cs_plus_ns,,,,,0,0,0,0,,,,,,,,,1,3,19,9,,,,,,,,,,,,,,,,,,,,,2212.497775499942,130,none,0,,,2217.5115187999327,,,,,,,,39,A,2023-12-20_13h11.42.618,gca_avoidance_task,2022.2.4,143.63441026039473,
positions.xlsx,stimuli.xlsx,stimuli/Social1.png,stimuli/Social2.png,stimuli/Nonsocial1.png,stimuli/Nonsocial2.png,,"(-0.7, 0.5)",cs_plus_ns,,,,,0,0,0,0,,,,,,,,,1,4,20,8,,,,,,,,,,,,,,,,,,,,,2226.295864399988,130,none,0,,,2231.3026368999854,,,,,,,,39,A,2023-12-20_13h11.42.618,gca_avoidance_task,2022.2.4,143.63441026039473,
positions.xlsx,stimuli.xlsx,stimuli/Social1.png,stimuli/Social2.png,stimuli/Nonsocial1.png,stimuli/Nonsocial2.png,,"(-0.7, 0.5)",cs_minus_s,,,,,0,0,0,0,,,,,,,,,1,5,21,4,,,,,,,,,,,,,,,,,,,,,2241.218906499911,135,reward,1,0.5418003001250327,0.5418038999196142,2241.767502400093,,,,,,,,39,A,2023-12-20_13h11.42.618,gca_avoidance_task,2022.2.4,143.63441026039473,
positions.xlsx,stimuli.xlsx,stimuli/Social1.png,stimuli/Social2.png,stimuli/Nonsocial1.png,stimuli/Nonsocial2.png,,"(0.7, 0.5)",cs_plus_ns,,,,,0,0,0,0,,,,,,,,,1,6,22,10,,,,,,,,,,,,,,,,,,,,,2251.503192400094,135,none,0,,,2256.5099631000776,,,,,,,,39,A,2023-12-20_13h11.42.618,gca_avoidance_task,2022.2.4,143.63441026039473,
positions.xlsx,stimuli.xlsx,stimuli/Social1.png,stimuli/Social2.png,stimuli/Nonsocial1.png,stimuli/Nonsocial2.png,,"(-0.7, -0.5)",cs_minus_ns,,,,,0,0,0,0,,,,,,,,,1,7,23,13,,,,,,,,,,,,,,,,,,,,,2266.217932800064,140,reward,1,0.52076860005036,0.5207722000777721,2266.745675300015,,,,,,,,39,A,2023-12-20_13h11.42.618,gca_avoidance_task,2022.2.4,143.63441026039473,
positions.xlsx,stimuli.xlsx,stimuli/Social1.png,stimuli/Social2.png,stimuli/Nonsocial1.png,stimuli/Nonsocial2.png,,"(-0.7, -0.5)",cs_plus_s,,,,,0,0,0,0,,,,,,,,,1,8,24,1,,,,,,,,,,,,,,,,,,,,,2276.807775600115,140,none,0,,,2281.8145836999174,,,,,,,,39,A,2023-12-20_13h11.42.618,gca_avoidance_task,2022.2.4,143.63441026039473,
positions.xlsx,stimuli.xlsx,stimuli/Social1.png,stimuli/Social2.png,stimuli/Nonsocial1.png,stimuli/Nonsocial2.png,,"(0.7, 0.5)",cs_plus_s,,,,,0,0,0,0,,,,,,,,,1,9,25,2,,,,,,,,,,,,,,,,,,,,,2291.8419143999927,140,none,0,,,2296.848662199918,,,,,,,,39,A,2023-12-20_13h11.42.618,gca_avoidance_task,2022.2.4,143.63441026039473,
positions.xlsx,stimuli.xlsx,stimuli/Social1.png,stimuli/Social2.png,stimuli/Nonsocial1.png,stimuli/Nonsocial2.png,,"(0.7, -0.5)",cs_minus_s,,,,,0,0,0,0,,,,,,,,,1,10,26,7,,,,,,,,,,,,,,,,,,,,,2306.3691151998937,145,reward,1,0.5280560001265258,0.5280597000382841,2306.903832900105,,,,,,,,39,A,2023-12-20_13h11.42.618,gca_avoidance_task,2022.2.4,143.63441026039473,
positions.xlsx,stimuli.xlsx,stimuli/Social1.png,stimuli/Social2.png,stimuli/Nonsocial1.png,stimuli/Nonsocial2.png,,"(0.7, 0.5)",cs_minus_ns,,,,,0,0,0,0,,,,,,,,,1,11,27,14,,,,,,,,,,,,,,,,,,,,,2316.264582999982,150,reward,1,0.6318721000570804,0.6318757999688387,2316.903427799931,,,,,,,,39,A,2023-12-20_13h11.42.618,gca_avoidance_task,2022.2.4,143.63441026039473,
positions.xlsx,stimuli.xlsx,stimuli/Social1.png,stimuli/Social2.png,stimuli/Nonsocial1.png,stimuli/Nonsocial2.png,,"(-0.7, 0.5)",cs_minus_ns,,,,,0,0,0,0,,,,,,,,,1,12,28,12,,,,,,,,,,,,,,,,,,,,,2325.9308720999397,155,reward,1,0.549292900133878,0.5492966000456363,2326.4864320999477,,,,,,,,39,A,2023-12-20_13h11.42.618,gca_avoidance_task,2022.2.4,143.63441026039473,
positions.xlsx,stimuli.xlsx,stimuli/Social1.png,stimuli/Social2.png,stimuli/Nonsocial1.png,stimuli/Nonsocial2.png,,"(-0.7, -0.5)",cs_minus_s,,,,,0,0,0,0,,,,,,,,,1,13,29,5,,,,,,,,,,,,,,,,,,,,,2335.6735408999957,160,reward,1,0.4721202999353409,0.47212409996427596,2336.1526971999556,,,,,,,,39,A,2023-12-20_13h11.42.618,gca_avoidance_task,2022.2.4,143.63441026039473,
positions.xlsx,stimuli.xlsx,stimuli/Social1.png,stimuli/Social2.png,stimuli/Nonsocial1.png,stimuli/Nonsocial2.png,,"(-0.7, 0.5)",cs_plus_s,,,,,0,0,0,0,,,,,,,,,1,14,30,0,,,,,,,,,,,,,,,,,,,,,2346.291182700079,160,none,0,,,2351.297915400006,,,,,,,,39,A,2023-12-20_13h11.42.618,gca_avoidance_task,2022.2.4,143.63441026039473,
positions.xlsx,stimuli.xlsx,stimuli/Social1.png,stimuli/Social2.png,stimuli/Nonsocial1.png,stimuli/Nonsocial2.png,,"(0.7, -0.5)",cs_plus_ns,,,,,0,0,0,0,,,,,,,,,1,15,31,11,,,,,,,,,,,,,,,,,,,,,2360.7558943999466,160,none,0,,,2365.7626753000077,,,,,,,,39,A,2023-12-20_13h11.42.618,gca_avoidance_task,2022.2.4,143.63441026039473,
positions.xlsx,stimuli.xlsx,stimuli/Social1.png,stimuli/Social2.png,stimuli/Nonsocial1.png,stimuli/Nonsocial2.png,,"(-0.7, -0.5)",cs_minus_s,,,,,0,0,0,0,,,,,,,,,2,0,32,5,,,,,,,,,,,,,,,,,,,,,2375.151169599965,165,reward,1,0.49298529978841543,0.4929888998158276,2375.6512007000856,,,,,,,,39,A,2023-12-20_13h11.42.618,gca_avoidance_task,2022.2.4,143.63441026039473,
positions.xlsx,stimuli.xlsx,stimuli/Social1.png,stimuli/Social2.png,stimuli/Nonsocial1.png,stimuli/Nonsocial2.png,,"(0.7, 0.5)",cs_plus_ns,,,,,0,0,0,0,,,,,,,,,2,1,33,10,,,,,,,,,,,,,,,,,,,,,2384.6577576999553,165,shock,1,0.32684629992581904,0.326850299956277,2384.991069900105,,,,,,,,39,A,2023-12-20_13h11.42.618,gca_avoidance_task,2022.2.4,143.63441026039473,
positions.xlsx,stimuli.xlsx,stimuli/Social1.png,stimuli/Social2.png,stimuli/Nonsocial1.png,stimuli/Nonsocial2.png,,"(0.7, 0.5)",cs_minus_s,,,,,0,0,0,0,,,,,,,,,2,2,34,6,,,,,,,,,,,,,,,,,,,,,2395.351791100111,170,reward,1,0.5695578998420388,0.5695615999866277,2395.9281097999774,,,,,,,,39,A,2023-12-20_13h11.42.618,gca_avoidance_task,2022.2.4,143.63441026039473,
positions.xlsx,stimuli.xlsx,stimuli/Social1.png,stimuli/Social2.png,stimuli/Nonsocial1.png,stimuli/Nonsocial2.png,,"(0.7, 0.5)",cs_plus_s,,,,,0,0,0,0,,,,,,,,,2,3,35,2,,,,,,,,,,,,,,,,,,,,,2404.7541592000052,170,none,0,,,2409.7678722001147,,,,,,,,39,A,2023-12-20_13h11.42.618,gca_avoidance_task,2022.2.4,143.63441026039473,
positions.xlsx,stimuli.xlsx,stimuli/Social1.png,stimuli/Social2.png,stimuli/Nonsocial1.png,stimuli/Nonsocial2.png,,"(-0.7, -0.5)",cs_plus_s,,,,,0,0,0,0,,,,,,,,,2,4,36,1,,,,,,,,,,,,,,,,,,,,,2419.0452860000078,170,none,0,,,2424.052062700037,,,,,,,,39,A,2023-12-20_13h11.42.618,gca_avoidance_task,2022.2.4,143.63441026039473,
positions.xlsx,stimuli.xlsx,stimuli/Social1.png,stimuli/Social2.png,stimuli/Nonsocial1.png,stimuli/Nonsocial2.png,,"(-0.7, 0.5)",cs_minus_ns,,,,,0,0,0,0,,,,,,,,,2,5,37,12,,,,,,,,,,,,,,,,,,,,,2433.8224953999743,175,reward,1,0.5636118000838906,0.570073900045827,2434.3988564000465,,,,,,,,39,A,2023-12-20_13h11.42.618,gca_avoidance_task,2022.2.4,143.63441026039473,
positions.xlsx,stimuli.xlsx,stimuli/Social1.png,stimuli/Social2.png,stimuli/Nonsocial1.png,stimuli/Nonsocial2.png,,"(-0.7, 0.5)",cs_plus_ns,,,,,0,0,0,0,,,,,,,,,2,6,38,8,,,,,,,,,,,,,,,,,,,,,2444.1693531000055,175,none,0,,,2449.1830353001133,,,,,,,,39,A,2023-12-20_13h11.42.618,gca_avoidance_task,2022.2.4,143.63441026039473,
positions.xlsx,stimuli.xlsx,stimuli/Social1.png,stimuli/Social2.png,stimuli/Nonsocial1.png,stimuli/Nonsocial2.png,,"(-0.7, -0.5)",cs_minus_ns,,,,,0,0,0,0,,,,,,,,,2,7,39,13,,,,,,,,,,,,,,,,,,,,,2458.5368282001,180,reward,1,0.5560455999802798,0.5560496998950839,2459.106295299949,,,,,,,,39,A,2023-12-20_13h11.42.618,gca_avoidance_task,2022.2.4,143.63441026039473,
positions.xlsx,stimuli.xlsx,stimuli/Social1.png,stimuli/Social2.png,stimuli/Nonsocial1.png,stimuli/Nonsocial2.png,,"(0.7, 0.5)",cs_minus_ns,,,,,0,0,0,0,,,,,,,,,2,8,40,14,,,,,,,,,,,,,,,,,,,,,2468.50168090011,185,reward,1,0.5206581999082118,0.5206617000512779,2469.029483200051,,,,,,,,39,A,2023-12-20_13h11.42.618,gca_avoidance_task,2022.2.4,143.63441026039473,
positions.xlsx,stimuli.xlsx,stimuli/Social1.png,stimuli/Social2.png,stimuli/Nonsocial1.png,stimuli/Nonsocial2.png,,"(-0.7, 0.5)",cs_plus_s,,,,,0,0,0,0,,,,,,,,,2,9,41,0,,,,,,,,,,,,,,,,,,,,,2478.5569086000323,185,none,0,,,2483.563620999921,,,,,,,,39,A,2023-12-20_13h11.42.618,gca_avoidance_task,2022.2.4,143.63441026039473,
positions.xlsx,stimuli.xlsx,stimuli/Social1.png,stimuli/Social2.png,stimuli/Nonsocial1.png,stimuli/Nonsocial2.png,,"(-0.7, -0.5)",cs_plus_ns,,,,,0,0,0,0,,,,,,,,,2,10,42,9,,,,,,,,,,,,,,,,,,,,,2492.8688447999302,185,none,0,,,2497.875606500078,,,,,,,,39,A,2023-12-20_13h11.42.618,gca_avoidance_task,2022.2.4,143.63441026039473,
positions.xlsx,stimuli.xlsx,stimuli/Social1.png,stimuli/Social2.png,stimuli/Nonsocial1.png,stimuli/Nonsocial2.png,,"(0.7, -0.5)",cs_plus_ns,,,,,0,0,0,0,,,,,,,,,2,11,43,11,,,,,,,,,,,,,,,,,,,,,2507.1599314999767,185,none,0,,,2512.166644599987,,,,,,,,39,A,2023-12-20_13h11.42.618,gca_avoidance_task,2022.2.4,143.63441026039473,
positions.xlsx,stimuli.xlsx,stimuli/Social1.png,stimuli/Social2.png,stimuli/Nonsocial1.png,stimuli/Nonsocial2.png,,"(0.7, -0.5)",cs_plus_s,,,,,0,0,0,0,,,,,,,,,2,12,44,3,,,,,,,,,,,,,,,,,,,,,2521.6454841999803,185,none,0,,,2526.652234799927,,,,,,,,39,A,2023-12-20_13h11.42.618,gca_avoidance_task,2022.2.4,143.63441026039473,
positions.xlsx,stimuli.xlsx,stimuli/Social1.png,stimuli/Social2.png,stimuli/Nonsocial1.png,stimuli/Nonsocial2.png,,"(0.7, -0.5)",cs_minus_ns,,,,,0,0,0,0,,,,,,,,,2,13,45,15,,,,,,,,,,,,,,,,,,,,,2535.8046407999936,190,reward,1,0.5834296999964863,0.5834331999067217,2536.394920400111,,,,,,,,39,A,2023-12-20_13h11.42.618,gca_avoidance_task,2022.2.4,143.63441026039473,
positions.xlsx,stimuli.xlsx,stimuli/Social1.png,stimuli/Social2.png,stimuli/Nonsocial1.png,stimuli/Nonsocial2.png,,"(0.7, -0.5)",cs_minus_s,,,,,0,0,0,0,,,,,,,,,2,14,46,7,,,,,,,,,,,,,,,,,,,,,2546.116742500104,195,reward,1,0.8335146999452263,0.8335184000898153,2546.9570297999308,,,,,,,,39,A,2023-12-20_13h11.42.618,gca_avoidance_task,2022.2.4,143.63441026039473,
positions.xlsx,stimuli.xlsx,stimuli/Social1.png,stimuli/Social2.png,stimuli/Nonsocial1.png,stimuli/Nonsocial2.png,,"(-0.7, 0.5)",cs_minus_s,,,,,0,0,0,0,,,,,,,,,2,15,47,4,,,,,,,,,,,,,,,,,,,,,2555.7205360999797,200,reward,1,0.5421398999169469,0.5421434000600129,2556.269119200064,,,,,,,,39,A,2023-12-20_13h11.42.618,gca_avoidance_task,2022.2.4,143.63441026039473,
positions.xlsx,stimuli.xlsx,stimuli/Social1.png,stimuli/Social2.png,stimuli/Nonsocial1.png,stimuli/Nonsocial2.png,,"(0.7, -0.5)",cs_plus_s,,,,,0,0,0,0,,,,,,,,,3,0,48,3,,,,,,,,,,,,,,,,,,,,,2565.6229457000736,200,none,0,,,2570.6297003999352,,,,,,,,39,A,2023-12-20_13h11.42.618,gca_avoidance_task,2022.2.4,143.63441026039473,
positions.xlsx,stimuli.xlsx,stimuli/Social1.png,stimuli/Social2.png,stimuli/Nonsocial1.png,stimuli/Nonsocial2.png,,"(-0.7, -0.5)",cs_minus_ns,,,,,0,0,0,0,,,,,,,,,3,1,49,13,,,,,,,,,,,,,,,,,,,,,2580.15705420007,205,reward,1,0.47951540001668036,0.47951920004561543,2580.643165400019,,,,,,,,39,A,2023-12-20_13h11.42.618,gca_avoidance_task,2022.2.4,143.63441026039473,
positions.xlsx,stimuli.xlsx,stimuli/Social1.png,stimuli/Social2.png,stimuli/Nonsocial1.png,stimuli/Nonsocial2.png,,"(0.7, -0.5)",cs_minus_ns,,,,,0,0,0,0,,,,,,,,,3,2,50,15,,,,,,,,,,,,,,,,,,,,,2590.8302740999497,210,reward,1,0.5001828998792917,0.5001862999051809,2591.3371818999294,,,,,,,,39,A,2023-12-20_13h11.42.618,gca_avoidance_task,2022.2.4,143.63441026039473,
positions.xlsx,stimuli.xlsx,stimuli/Social1.png,stimuli/Social2.png,stimuli/Nonsocial1.png,stimuli/Nonsocial2.png,,"(0.7, -0.5)",cs_plus_ns,,,,,0,0,0,0,,,,,,,,,3,3,51,11,,,,,,,,,,,,,,,,,,,,,2601.190982399974,210,none,0,,,2606.2046743999235,,,,,,,,39,A,2023-12-20_13h11.42.618,gca_avoidance_task,2022.2.4,143.63441026039473,
positions.xlsx,stimuli.xlsx,stimuli/Social1.png,stimuli/Social2.png,stimuli/Nonsocial1.png,stimuli/Nonsocial2.png,,"(-0.7, 0.5)",cs_minus_ns,,,,,0,0,0,0,,,,,,,,,3,4,52,12,,,,,,,,,,,,,,,,,,,,,2615.5793236000463,215,reward,1,0.5280146999284625,0.5280184999573976,2616.114083700115,,,,,,,,39,A,2023-12-20_13h11.42.618,gca_avoidance_task,2022.2.4,143.63441026039473,
positions.xlsx,stimuli.xlsx,stimuli/Social1.png,stimuli/Social2.png,stimuli/Nonsocial1.png,stimuli/Nonsocial2.png,,"(-0.7, 0.5)",cs_minus_s,,,,,0,0,0,0,,,,,,,,,3,5,53,4,,,,,,,,,,,,,,,,,,,,,2626.3011201000772,220,reward,1,1.0073108000215143,1.0073145001661032,2627.315025100019,,,,,,,,39,A,2023-12-20_13h11.42.618,gca_avoidance_task,2022.2.4,143.63441026039473,
positions.xlsx,stimuli.xlsx,stimuli/Social1.png,stimuli/Social2.png,stimuli/Nonsocial1.png,stimuli/Nonsocial2.png,,"(0.7, 0.5)",cs_minus_s,,,,,0,0,0,0,,,,,,,,,3,6,54,6,,,,,,,,,,,,,,,,,,,,,2637.3701287999284,225,reward,1,0.5628206999972463,0.5628373001236469,2637.9395677999128,,,,,,,,39,A,2023-12-20_13h11.42.618,gca_avoidance_task,2022.2.4,143.63441026039473,
positions.xlsx,stimuli.xlsx,stimuli/Social1.png,stimuli/Social2.png,stimuli/Nonsocial1.png,stimuli/Nonsocial2.png,,"(-0.7, -0.5)",cs_plus_ns,,,,,0,0,0,0,,,,,,,,,3,7,55,9,,,,,,,,,,,,,,,,,,,,,2647.5433451000135,225,none,0,,,2652.5500713000074,,,,,,,,39,A,2023-12-20_13h11.42.618,gca_avoidance_task,2022.2.4,143.63441026039473,
positions.xlsx,stimuli.xlsx,stimuli/Social1.png,stimuli/Social2.png,stimuli/Nonsocial1.png,stimuli/Nonsocial2.png,,"(0.7, 0.5)",cs_plus_s,,,,,0,0,0,0,,,,,,,,,3,8,56,2,,,,,,,,,,,,,,,,,,,,,2661.7580691000912,225,none,0,,,2666.76484180009,,,,,,,,39,A,2023-12-20_13h11.42.618,gca_avoidance_task,2022.2.4,143.63441026039473,
positions.xlsx,stimuli.xlsx,stimuli/Social1.png,stimuli/Social2.png,stimuli/Nonsocial1.png,stimuli/Nonsocial2.png,,"(-0.7, -0.5)",cs_plus_s,,,,,0,0,0,0,,,,,,,,,3,9,57,1,,,,,,,,,,,,,,,,,,,,,2675.361743400106,225,none,0,,,2680.3684876000043,,,,,,,,39,A,2023-12-20_13h11.42.618,gca_avoidance_task,2022.2.4,143.63441026039473,
positions.xlsx,stimuli.xlsx,stimuli/Social1.png,stimuli/Social2.png,stimuli/Nonsocial1.png,stimuli/Nonsocial2.png,,"(-0.7, -0.5)",cs_minus_s,,,,,0,0,0,0,,,,,,,,,3,10,58,5,,,,,,,,,,,,,,,,,,,,,2690.0833694001194,230,reward,1,0.5207377001643181,0.5207414999604225,2690.6111294000875,,,,,,,,39,A,2023-12-20_13h11.42.618,gca_avoidance_task,2022.2.4,143.63441026039473,
positions.xlsx,stimuli.xlsx,stimuli/Social1.png,stimuli/Social2.png,stimuli/Nonsocial1.png,stimuli/Nonsocial2.png,,"(-0.7, 0.5)",cs_plus_ns,,,,,0,0,0,0,,,,,,,,,3,11,59,8,,,,,,,,,,,,,,,,,,,,,2699.9996517000254,230,none,0,,,2705.0133901999798,,,,,,,,39,A,2023-12-20_13h11.42.618,gca_avoidance_task,2022.2.4,143.63441026039473,
positions.xlsx,stimuli.xlsx,stimuli/Social1.png,stimuli/Social2.png,stimuli/Nonsocial1.png,stimuli/Nonsocial2.png,,"(0.7, 0.5)",cs_minus_ns,,,,,0,0,0,0,,,,,,,,,3,12,60,14,,,,,,,,,,,,,,,,,,,,,2714.28383459989,235,reward,1,0.5073375999927521,0.507341300137341,2714.7976981000975,,,,,,,,39,A,2023-12-20_13h11.42.618,gca_avoidance_task,2022.2.4,143.63441026039473,
positions.xlsx,stimuli.xlsx,stimuli/Social1.png,stimuli/Social2.png,stimuli/Nonsocial1.png,stimuli/Nonsocial2.png,,"(-0.7, 0.5)",cs_plus_s,,,,,0,0,0,0,,,,,,,,,3,13,61,0,,,,,,,,,,,,,,,,,,,,,2724.415371600073,235,none,0,,,2729.4290756001137,,,,,,,,39,A,2023-12-20_13h11.42.618,gca_avoidance_task,2022.2.4,143.63441026039473,
positions.xlsx,stimuli.xlsx,stimuli/Social1.png,stimuli/Social2.png,stimuli/Nonsocial1.png,stimuli/Nonsocial2.png,,"(0.7, -0.5)",cs_minus_s,,,,,0,0,0,0,,,,,,,,,3,14,62,7,,,,,,,,,,,,,,,,,,,,,2738.5675981999375,240,reward,1,0.3614136998075992,0.36141759995371103,2738.9356647999957,,,,,,,,39,A,2023-12-20_13h11.42.618,gca_avoidance_task,2022.2.4,143.63441026039473,
positions.xlsx,stimuli.xlsx,stimuli/Social1.png,stimuli/Social2.png,stimuli/Nonsocial1.png,stimuli/Nonsocial2.png,,"(0.7, 0.5)",cs_plus_ns,,,,,0,0,0,0,,,,,,,,,3,15,63,10,,,,,,,,,,,,,,,,,,,,,2748.3450078000315,240,none,0,,,2753.3587356000207,,,,,,,,39,A,2023-12-20_13h11.42.618,gca_avoidance_task,2022.2.4,143.63441026039473,
positions.xlsx,stimuli.xlsx,stimuli/Social1.png,stimuli/Social2.png,stimuli/Nonsocial1.png,stimuli/Nonsocial2.png,,"(-0.7, 0.5)",cs_plus_ns,,,,,0,0,0,0,,,,,,,,,4,0,64,8,,,,,,,,,,,,,,,,,,,,,2763.2749964999966,240,none,0,,,2768.2817387001123,,,,,,,,39,A,2023-12-20_13h11.42.618,gca_avoidance_task,2022.2.4,143.63441026039473,
positions.xlsx,stimuli.xlsx,stimuli/Social1.png,stimuli/Social2.png,stimuli/Nonsocial1.png,stimuli/Nonsocial2.png,,"(-0.7, 0.5)",cs_minus_ns,,,,,0,0,0,0,,,,,,,,,4,1,65,12,,,,,,,,,,,,,,,,,,,,,2778.350763600087,245,reward,1,0.5555690000765026,0.5555725998710841,2778.9132558000274,,,,,,,,39,A,2023-12-20_13h11.42.618,gca_avoidance_task,2022.2.4,143.63441026039473,
positions.xlsx,stimuli.xlsx,stimuli/Social1.png,stimuli/Social2.png,stimuli/Nonsocial1.png,stimuli/Nonsocial2.png,,"(0.7, 0.5)",cs_minus_ns,,,,,0,0,0,0,,,,,,,,,4,2,66,14,,,,,,,,,,,,,,,,,,,,,2788.3364878001157,250,reward,1,0.4862732000183314,0.4862768000457436,2788.829497799976,,,,,,,,39,A,2023-12-20_13h11.42.618,gca_avoidance_task,2022.2.4,143.63441026039473,
positions.xlsx,stimuli.xlsx,stimuli/Social1.png,stimuli/Social2.png,stimuli/Nonsocial1.png,stimuli/Nonsocial2.png,,"(-0.7, -0.5)",cs_plus_s,,,,,0,0,0,0,,,,,,,,,4,3,67,1,,,,,,,,,,,,,,,,,,,,,2798.815246199956,250,none,0,,,2803.8220055000857,,,,,,,,39,A,2023-12-20_13h11.42.618,gca_avoidance_task,2022.2.4,143.63441026039473,
positions.xlsx,stimuli.xlsx,stimuli/Social1.png,stimuli/Social2.png,stimuli/Nonsocial1.png,stimuli/Nonsocial2.png,,"(0.7, 0.5)",cs_plus_ns,,,,,0,0,0,0,,,,,,,,,4,4,68,10,,,,,,,,,,,,,,,,,,,,,2813.3147199999075,250,none,0,,,2818.3214606998954,,,,,,,,39,A,2023-12-20_13h11.42.618,gca_avoidance_task,2022.2.4,143.63441026039473,
positions.xlsx,stimuli.xlsx,stimuli/Social1.png,stimuli/Social2.png,stimuli/Nonsocial1.png,stimuli/Nonsocial2.png,,"(-0.7, 0.5)",cs_plus_s,,,,,0,0,0,0,,,,,,,,,4,5,69,0,,,,,,,,,,,,,,,,,,,,,2827.9460672000423,250,none,0,,,2832.952828099951,,,,,,,,39,A,2023-12-20_13h11.42.618,gca_avoidance_task,2022.2.4,143.63441026039473,
positions.xlsx,stimuli.xlsx,stimuli/Social1.png,stimuli/Social2.png,stimuli/Nonsocial1.png,stimuli/Nonsocial2.png,,"(0.7, -0.5)",cs_minus_s,,,,,0,0,0,0,,,,,,,,,4,6,70,7,,,,,,,,,,,,,,,,,,,,,2842.3899691000115,255,reward,1,0.6529463001061231,0.6529502000194043,2843.0496592000127,,,,,,,,39,A,2023-12-20_13h11.42.618,gca_avoidance_task,2022.2.4,143.63441026039473,
positions.xlsx,stimuli.xlsx,stimuli/Social1.png,stimuli/Social2.png,stimuli/Nonsocial1.png,stimuli/Nonsocial2.png,,"(0.7, 0.5)",cs_minus_s,,,,,0,0,0,0,,,,,,,,,4,7,71,6,,,,,,,,,,,,,,,,,,,,,2852.6464857999235,260,reward,1,0.604299700120464,0.6043037001509219,2853.2576103999745,,,,,,,,39,A,2023-12-20_13h11.42.618,gca_avoidance_task,2022.2.4,143.63441026039473,
positions.xlsx,stimuli.xlsx,stimuli/Social1.png,stimuli/Social2.png,stimuli/Nonsocial1.png,stimuli/Nonsocial2.png,,"(0.7, -0.5)",cs_plus_s,,,,,0,0,0,0,,,,,,,,,4,8,72,3,,,,,,,,,,,,,,,,,,,,,2863.0350051000714,260,none,0,,,2868.0417311000638,,,,,,,,39,A,2023-12-20_13h11.42.618,gca_avoidance_task,2022.2.4,143.63441026039473,
positions.xlsx,stimuli.xlsx,stimuli/Social1.png,stimuli/Social2.png,stimuli/Nonsocial1.png,stimuli/Nonsocial2.png,,"(-0.7, 0.5)",cs_minus_s,,,,,0,0,0,0,,,,,,,,,4,9,73,4,,,,,,,,,,,,,,,,,,,,,2878.006629700074,265,reward,1,0.4860908000264317,0.4860942999366671,2878.4996629001107,,,,,,,,39,A,2023-12-20_13h11.42.618,gca_avoidance_task,2022.2.4,143.63441026039473,
positions.xlsx,stimuli.xlsx,stimuli/Social1.png,stimuli/Social2.png,stimuli/Nonsocial1.png,stimuli/Nonsocial2.png,,"(-0.7, -0.5)",cs_minus_ns,,,,,0,0,0,0,,,,,,,,,4,10,74,13,,,,,,,,,,,,,,,,,,,,,2888.2007164000534,270,reward,1,0.47224669996649027,0.47225059987977147,2888.6798189999536,,,,,,,,39,A,2023-12-20_13h11.42.618,gca_avoidance_task,2022.2.4,143.63441026039473,
positions.xlsx,stimuli.xlsx,stimuli/Social1.png,stimuli/Social2.png,stimuli/Nonsocial1.png,stimuli/Nonsocial2.png,,"(-0.7, -0.5)",cs_plus_ns,,,,,0,0,0,0,,,,,,,,,4,11,75,9,,,,,,,,,,,,,,,,,,,,,2898.1933293999173,270,none,0,,,2903.2001314000227,,,,,,,,39,A,2023-12-20_13h11.42.618,gca_avoidance_task,2022.2.4,143.63441026039473,
positions.xlsx,stimuli.xlsx,stimuli/Social1.png,stimuli/Social2.png,stimuli/Nonsocial1.png,stimuli/Nonsocial2.png,,"(-0.7, -0.5)",cs_minus_s,,,,,0,0,0,0,,,,,,,,,4,12,76,5,,,,,,,,,,,,,,,,,,,,,2912.859436400002,275,reward,1,0.5140120000578463,0.5140158000867814,2913.3802614999004,,,,,,,,39,A,2023-12-20_13h11.42.618,gca_avoidance_task,2022.2.4,143.63441026039473,
positions.xlsx,stimuli.xlsx,stimuli/Social1.png,stimuli/Social2.png,stimuli/Nonsocial1.png,stimuli/Nonsocial2.png,,"(0.7, -0.5)",cs_plus_ns,,,,,0,0,0,0,,,,,,,,,4,13,77,11,,,,,,,,,,,,,,,,,,,,,2923.0396008000243,275,none,0,,,2928.0463721998967,,,,,,,,39,A,2023-12-20_13h11.42.618,gca_avoidance_task,2022.2.4,143.63441026039473,
positions.xlsx,stimuli.xlsx,stimuli/Social1.png,stimuli/Social2.png,stimuli/Nonsocial1.png,stimuli/Nonsocial2.png,,"(0.7, -0.5)",cs_minus_ns,,,,,0,0,0,0,,,,,,,,,4,14,78,15,,,,,,,,,,,,,,,,,,,,,2937.6223556001205,280,reward,1,0.5628128000535071,0.5628164999652654,2938.19185990002,,,,,,,,39,A,2023-12-20_13h11.42.618,gca_avoidance_task,2022.2.4,143.63441026039473,
positions.xlsx,stimuli.xlsx,stimuli/Social1.png,stimuli/Social2.png,stimuli/Nonsocial1.png,stimuli/Nonsocial2.png,,"(0.7, 0.5)",cs_plus_s,,,,,0,0,0,0,,,,,,,,,4,15,79,2,,,,,,,,,,,,,,,,,,,,,2947.2608719000127,280,none,0,,,2952.2676355000585,,,,,,,,39,A,2023-12-20_13h11.42.618,gca_avoidance_task,2022.2.4,143.63441026039473,
positions.xlsx,stimuli.xlsx,stimuli/Social1.png,stimuli/Social2.png,stimuli/Nonsocial1.png,stimuli/Nonsocial2.png,cs_plus_ns,,,,,,,0,0,0,0,,,,,,,,,,,,,0,0,0,1,,,,,,,,,,,,,2965.3852160999086,2.0,3.481655800016597,,,,,,,,,6.0,4.7433966000098735,,,,,,39,A,2023-12-20_13h11.42.618,gca_avoidance_task,2022.2.4,143.63441026039473,
positions.xlsx,stimuli.xlsx,stimuli/Social1.png,stimuli/Social2.png,stimuli/Nonsocial1.png,stimuli/Nonsocial2.png,cs_minus_s,,,,,,,0,0,0,0,,,,,,,,,,,,,0,1,1,2,,,,,,,,,,,,,2970.544667100068,6.0,2.194831799948588,,,,,,,,,,,,,,,,39,A,2023-12-20_13h11.42.618,gca_avoidance_task,2022.2.4,143.63441026039473,
positions.xlsx,stimuli.xlsx,stimuli/Social1.png,stimuli/Social2.png,stimuli/Nonsocial1.png,stimuli/Nonsocial2.png,cs_plus_s,,,,,,,0,0,0,0,,,,,,,,,,,,,0,2,2,0,,,,,,,,,,,,,2973.7529005000833,3.0,1.9381878999993205,,,,,,,,,,,,,,,,39,A,2023-12-20_13h11.42.618,gca_avoidance_task,2022.2.4,143.63441026039473,
positions.xlsx,stimuli.xlsx,stimuli/Social1.png,stimuli/Social2.png,stimuli/Nonsocial1.png,stimuli/Nonsocial2.png,cs_minus_ns,,,,,,,0,0,0,0,,,,,,,,,,,,,0,3,3,3,,,,,,,,,,,,,2976.356986900093,8.0,3.2427452001720667,,,,,,,,,,,,,,,,39,A,2023-12-20_13h11.42.618,gca_avoidance_task,2022.2.4,143.63441026039473,
positions.xlsx,stimuli.xlsx,stimuli/Social1.png,stimuli/Social2.png,stimuli/Nonsocial1.png,stimuli/Nonsocial2.png,cs_minus_s,,,,,,,0,0,0,0,,,,,,,,,,,,,,,,,0,0,0,2,,,,,,,,,,,,,,,,,,,,,,2980.502632400021,2984.3080571000464,2,0.022780600003898144,1.7083582000341266,39,A,2023-12-20_13h11.42.618,gca_avoidance_task,2022.2.4,143.63441026039473,
positions.xlsx,stimuli.xlsx,stimuli/Social1.png,stimuli/Social2.png,stimuli/Nonsocial1.png,stimuli/Nonsocial2.png,cs_minus_ns,,,,,,,0,0,0,0,,,,,,,,,,,,,,,,,0,1,1,3,,,,,,,,,,,,,,,,,,,,,,,2999.6893905999605,2,0.015071299858391285,6.382115999935195,39,A,2023-12-20_13h11.42.618,gca_avoidance_task,2022.2.4,143.63441026039473,
positions.xlsx,stimuli.xlsx,stimuli/Social1.png,stimuli/Social2.png,stimuli/Nonsocial1.png,stimuli/Nonsocial2.png,cs_plus_ns,,,,,,,0,0,0,0,,,,,,,,,,,,,,,,,0,2,2,1,,,,,,,,,,,,,,,,,,,,,,,3014.598537300015,1,0.015404799953103065,10.000197799876332,39,A,2023-12-20_13h11.42.618,gca_avoidance_task,2022.2.4,143.63441026039473,
positions.xlsx,stimuli.xlsx,stimuli/Social1.png,stimuli/Social2.png,stimuli/Nonsocial1.png,stimuli/Nonsocial2.png,cs_plus_s,,,,,,,0,0,0,0,,,,,,,,,,,,,,,,,0,3,3,0,,,,,,,,,,,,,,,,,,,,,,,3029.722953400109,2,0.014713400043547153,8.034756900044158,39,A,2023-12-20_13h11.42.618,gca_avoidance_task,2022.2.4,143.63441026039473,
positions.xlsx,stimuli.xlsx,stimuli/Social1.png,stimuli/Social2.png,stimuli/Nonsocial1.png,stimuli/Nonsocial2.png,cs_plus_ns,,,,,,,0,0,0,0,,,,,,,,,,,,,,,,,1,0,4,1,,,,,,,,,,,,,,,,,,,,,,,3045.1668106999714,1,0.014690800104290247,9.999987600138411,39,A,2023-12-20_13h11.42.618,gca_avoidance_task,2022.2.4,143.63441026039473,
positions.xlsx,stimuli.xlsx,stimuli/Social1.png,stimuli/Social2.png,stimuli/Nonsocial1.png,stimuli/Nonsocial2.png,cs_minus_s,,,,,,,0,0,0,0,,,,,,,,,,,,,,,,,1,1,5,2,,,,,,,,,,,,,,,,,,,,,,,3060.3606724001,3,0.01503390003927052,3.0071954000741243,39,A,2023-12-20_13h11.42.618,gca_avoidance_task,2022.2.4,143.63441026039473,
positions.xlsx,stimuli.xlsx,stimuli/Social1.png,stimuli/Social2.png,stimuli/Nonsocial1.png,stimuli/Nonsocial2.png,cs_plus_s,,,,,,,0,0,0,0,,,,,,,,,,,,,,,,,1,2,6,0,,,,,,,,,,,,,,,,,,,,,,,3075.005899199983,3,0.139265300007537,1.3406531000509858,39,A,2023-12-20_13h11.42.618,gca_avoidance_task,2022.2.4,143.63441026039473,
positions.xlsx,stimuli.xlsx,stimuli/Social1.png,stimuli/Social2.png,stimuli/Nonsocial1.png,stimuli/Nonsocial2.png,cs_minus_ns,,,,,,,0,0,0,0,,,,,,,,,,,,,,,,,1,3,7,3,,,,,,,,,,,,,,,,,,,,,,,3089.6442702000495,2,0.015509799821302295,0.06990599981509149,39,A,2023-12-20_13h11.42.618,gca_avoidance_task,2022.2.4,143.63441026039473,
positions.xlsx,stimuli.xlsx,stimuli/Social1.png,stimuli/Social2.png,stimuli/Nonsocial1.png,stimuli/Nonsocial2.png,cs_minus_ns,,,,,,,0,0,0,0,,,,,,,,,,,,,,,,,2,0,8,3,,,,,,,,,,,,,,,,,,,,,,,3105.0741979999,2,0.015311599941924214,0.63224450009875,39,A,2023-12-20_13h11.42.618,gca_avoidance_task,2022.2.4,143.63441026039473,
positions.xlsx,stimuli.xlsx,stimuli/Social1.png,stimuli/Social2.png,stimuli/Nonsocial1.png,stimuli/Nonsocial2.png,cs_plus_s,,,,,,,0,0,0,0,,,,,,,,,,,,,,,,,2,1,9,0,,,,,,,,,,,,,,,,,,,,,,,3120.3722190000117,3,0.014312800019979477,0.04906260012649,39,A,2023-12-20_13h11.42.618,gca_avoidance_task,2022.2.4,143.63441026039473,
positions.xlsx,stimuli.xlsx,stimuli/Social1.png,stimuli/Social2.png,stimuli/Nonsocial1.png,stimuli/Nonsocial2.png,cs_minus_s,,,,,,,0,0,0,0,,,,,,,,,,,,,,,,,2,2,10,2,,,,,,,,,,,,,,,,,,,,,,,3135.239712700015,2,0.01468420005403459,8.965369099983945,39,A,2023-12-20_13h11.42.618,gca_avoidance_task,2022.2.4,143.63441026039473,
positions.xlsx,stimuli.xlsx,stimuli/Social1.png,stimuli/Social2.png,stimuli/Nonsocial1.png,stimuli/Nonsocial2.png,cs_plus_ns,,,,,,,0,0,0,0,,,,,,,,,,,,,,,,,2,3,11,1,,,,,,,,,,,,,,,,,,,,,,,3149.864104999928,6,0.014980699867010117,1.722560599911958,39,A,2023-12-20_13h11.42.618,gca_avoidance_task,2022.2.4,143.63441026039473,
positions.xlsx,stimuli.xlsx,stimuli/Social1.png,stimuli/Social2.png,stimuli/Nonsocial1.png,stimuli/Nonsocial2.png,cs_minus_s,,,,,,,0,0,0,0,,,,,,,,,,,,,,,,,3,0,12,2,,,,,,,,,,,,,,,,,,,,,,,3164.7802029000595,2,0.014534200076013803,3.2781132999807596,39,A,2023-12-20_13h11.42.618,gca_avoidance_task,2022.2.4,143.63441026039473,
positions.xlsx,stimuli.xlsx,stimuli/Social1.png,stimuli/Social2.png,stimuli/Nonsocial1.png,stimuli/Nonsocial2.png,cs_minus_ns,,,,,,,0,0,0,0,,,,,,,,,,,,,,,,,3,1,13,3,,,,,,,,,,,,,,,,,,,,,,,3179.911566300085,4,0.014774200040847063,0.45875600003637373,39,A,2023-12-20_13h11.42.618,gca_avoidance_task,2022.2.4,143.63441026039473,
positions.xlsx,stimuli.xlsx,stimuli/Social1.png,stimuli/Social2.png,stimuli/Nonsocial1.png,stimuli/Nonsocial2.png,cs_plus_ns,,,,,,,0,0,0,0,,,,,,,,,,,,,,,,,3,2,14,1,,,,,,,,,,,,,,,,,,,,,,,3195.299827300012,4,0.01569909998215735,1.055830999976024,39,A,2023-12-20_13h11.42.618,gca_avoidance_task,2022.2.4,143.63441026039473,
positions.xlsx,stimuli.xlsx,stimuli/Social1.png,stimuli/Social2.png,stimuli/Nonsocial1.png,stimuli/Nonsocial2.png,cs_plus_s,,,,,,,0,0,0,0,,,,,,,,,,,,,,,,,3,3,15,0,,,,,,,,,,,,,,,,,,,,,,,3210.181196700083,3,0.014166499953716993,5.430685499915853,39,A,2023-12-20_13h11.42.618,gca_avoidance_task,2022.2.4,143.63441026039473,
positions.xlsx,stimuli.xlsx,stimuli/Social1.png,stimuli/Social2.png,stimuli/Nonsocial1.png,stimuli/Nonsocial2.png,cs_plus_s,,,,,,,0,0,0,0,,,,,,,,,,,,,,,,,4,0,16,0,,,,,,,,,,,,,,,,,,,,,,,3225.3403326000553,3,0.013413999928161502,2.916949399979785,39,A,2023-12-20_13h11.42.618,gca_avoidance_task,2022.2.4,143.63441026039473,
positions.xlsx,stimuli.xlsx,stimuli/Social1.png,stimuli/Social2.png,stimuli/Nonsocial1.png,stimuli/Nonsocial2.png,cs_minus_s,,,,,,,0,0,0,0,,,,,,,,,,,,,,,,,4,1,17,2,,,,,,,,,,,,,,,,,,,,,,,3240.2564270999283,2,0.14643020019866526,5.653045600047335,39,A,2023-12-20_13h11.42.618,gca_avoidance_task,2022.2.4,143.63441026039473,
positions.xlsx,stimuli.xlsx,stimuli/Social1.png,stimuli/Social2.png,stimuli/Nonsocial1.png,stimuli/Nonsocial2.png,cs_plus_ns,,,,,,,0,0,0,0,,,,,,,,,,,,,,,,,4,2,18,1,,,,,,,,,,,,,,,,,,,,,,,3255.1100176000036,2,0.013996199937537313,3.4308823999017477,39,A,2023-12-20_13h11.42.618,gca_avoidance_task,2022.2.4,143.63441026039473,
positions.xlsx,stimuli.xlsx,stimuli/Social1.png,stimuli/Social2.png,stimuli/Nonsocial1.png,stimuli/Nonsocial2.png,cs_minus_ns,,,,,,,0,0,0,0,,,,,,,,,,,,,,,,,4,3,19,3,,,,,,,,,,,,,,,,,,,,,,,3270.4913709000684,2,0.014318399829789996,7.243376599857584,39,A,2023-12-20_13h11.42.618,gca_avoidance_task,2022.2.4,143.63441026039473,
positions.xlsx,stimuli.xlsx,stimuli/Social1.png,stimuli/Social2.png,stimuli/Nonsocial1.png,stimuli/Nonsocial2.png,cs_minus_ns,,,,,,,0,0,0,0,,,,,,,,,,,,,,,,,5,0,20,3,,,,,,,,,,,,,,,,,,,,,,,3285.7685720999725,2,0.014026600169017911,0.9726293000858277,39,A,2023-12-20_13h11.42.618,gca_avoidance_task,2022.2.4,143.63441026039473,
positions.xlsx,stimuli.xlsx,stimuli/Social1.png,stimuli/Social2.png,stimuli/Nonsocial1.png,stimuli/Nonsocial2.png,cs_plus_s,,,,,,,0,0,0,0,,,,,,,,,,,,,,,,,5,1,21,0,,,,,,,,,,,,,,,,,,,,,,,3301.260998700047,3,0.013816299848258495,0.8477839999832213,39,A,2023-12-20_13h11.42.618,gca_avoidance_task,2022.2.4,143.63441026039473,
positions.xlsx,stimuli.xlsx,stimuli/Social1.png,stimuli/Social2.png,stimuli/Nonsocial1.png,stimuli/Nonsocial2.png,cs_minus_s,,,,,,,0,0,0,0,,,,,,,,,,,,,,,,,5,2,22,2,,,,,,,,,,,,,,,,,,,,,,,3316.1493168000598,4,0.013450699858367443,0.3961052999366075,39,A,2023-12-20_13h11.42.618,gca_avoidance_task,2022.2.4,143.63441026039473,
positions.xlsx,stimuli.xlsx,stimuli/Social1.png,stimuli/Social2.png,stimuli/Nonsocial1.png,stimuli/Nonsocial2.png,cs_plus_ns,,,,,,,0,0,0,0,,,,,,,,,,,,,,,,,5,3,23,1,,,,,,,,,,,,,,,,,,,,,,,3330.919582699891,5,0.013906799955293536,0.9239969998598099,39,A,2023-12-20_13h11.42.618,gca_avoidance_task,2022.2.4,143.63441026039473,
positions.xlsx,stimuli.xlsx,stimuli/Social1.png,stimuli/Social2.png,stimuli/Nonsocial1.png,stimuli/Nonsocial2.png,cs_plus_s,,,,,,,0,0,0,0,,,,,,,,,,,,,,,,,6,0,24,0,,,,,,,,,,,,,,,,,,,,,,,3345.5579053000547,4,0.01311489986255765,1.4726741998456419,39,A,2023-12-20_13h11.42.618,gca_avoidance_task,2022.2.4,143.63441026039473,
positions.xlsx,stimuli.xlsx,stimuli/Social1.png,stimuli/Social2.png,stimuli/Nonsocial1.png,stimuli/Nonsocial2.png,cs_plus_ns,,,,,,,0,0,0,0,,,,,,,,,,,,,,,,,6,1,25,1,,,,,,,,,,,,,,,,,,,,,,,3360.2864876000676,4,0.014482600148767233,0.5212003001943231,39,A,2023-12-20_13h11.42.618,gca_avoidance_task,2022.2.4,143.63441026039473,
positions.xlsx,stimuli.xlsx,stimuli/Social1.png,stimuli/Social2.png,stimuli/Nonsocial1.png,stimuli/Nonsocial2.png,cs_minus_ns,,,,,,,0,0,0,0,,,,,,,,,,,,,,,,,6,2,26,3,,,,,,,,,,,,,,,,,,,,,,,3375.5497542000376,2,0.015394299989566207,2.882226799847558,39,A,2023-12-20_13h11.42.618,gca_avoidance_task,2022.2.4,143.63441026039473,
positions.xlsx,stimuli.xlsx,stimuli/Social1.png,stimuli/Social2.png,stimuli/Nonsocial1.png,stimuli/Nonsocial2.png,cs_minus_s,,,,,,,0,0,0,0,,,,,,,,,,,,,,,,,6,3,27,2,,,,,,,,,,,,,,,,,,,,,,,3390.4033447999973,4,0.014035400003194809,2.2503234001342207,39,A,2023-12-20_13h11.42.618,gca_avoidance_task,2022.2.4,143.63441026039473,
positions.xlsx,stimuli.xlsx,stimuli/Social1.png,stimuli/Social2.png,stimuli/Nonsocial1.png,stimuli/Nonsocial2.png,cs_plus_s,,,,,,,0,0,0,0,,,,,,,,,,,,,,,,,7,0,28,0,,,,,,,,,,,,,,,,,,,,,,,3405.7986071999185,5,0.049067300045862794,7.437970900209621,39,A,2023-12-20_13h11.42.618,gca_avoidance_task,2022.2.4,143.63441026039473,
positions.xlsx,stimuli.xlsx,stimuli/Social1.png,stimuli/Social2.png,stimuli/Nonsocial1.png,stimuli/Nonsocial2.png,cs_minus_s,,,,,,,0,0,0,0,,,,,,,,,,,,,,,,,7,1,29,2,,,,,,,,,,,,,,,,,,,,,,,3420.554997100029,3,0.014829899882897735,2.4388164000120014,39,A,2023-12-20_13h11.42.618,gca_avoidance_task,2022.2.4,143.63441026039473,
positions.xlsx,stimuli.xlsx,stimuli/Social1.png,stimuli/Social2.png,stimuli/Nonsocial1.png,stimuli/Nonsocial2.png,cs_minus_ns,,,,,,,0,0,0,0,,,,,,,,,,,,,,,,,7,2,30,3,,,,,,,,,,,,,,,,,,,,,,,3435.1307955998927,2,0.015029700007289648,4.805599499959499,39,A,2023-12-20_13h11.42.618,gca_avoidance_task,2022.2.4,143.63441026039473,
positions.xlsx,stimuli.xlsx,stimuli/Social1.png,stimuli/Social2.png,stimuli/Nonsocial1.png,stimuli/Nonsocial2.png,cs_plus_ns,,,,,,,0,0,0,0,,,,,,,,,,,,,,,,,7,3,31,1,,,,,,,,,,,,,,,,,,,,,,,3449.76219379995,3,0.014001299859955907,1.0419691998977214,39,A,2023-12-20_13h11.42.618,gca_avoidance_task,2022.2.4,143.63441026039473,
positions.xlsx,stimuli.xlsx,stimuli/Social1.png,stimuli/Social2.png,stimuli/Nonsocial1.png,stimuli/Nonsocial2.png,cs_minus_ns,,,,,,,0,0,0,0,,,,,,,,,,,,,,,,,8,0,32,3,,,,,,,,,,,,,,,,,,,,,,,3464.407433500048,1,0.014301999937742949,9.999989500036463,39,A,2023-12-20_13h11.42.618,gca_avoidance_task,2022.2.4,143.63441026039473,
positions.xlsx,stimuli.xlsx,stimuli/Social1.png,stimuli/Social2.png,stimuli/Nonsocial1.png,stimuli/Nonsocial2.png,cs_plus_s,,,,,,,0,0,0,0,,,,,,,,,,,,,,,,,8,1,33,0,,,,,,,,,,,,,,,,,,,,,,,3479.226312200073,6,0.014308099867776036,0.10439760005101562,39,A,2023-12-20_13h11.42.618,gca_avoidance_task,2022.2.4,143.63441026039473,
positions.xlsx,stimuli.xlsx,stimuli/Social1.png,stimuli/Social2.png,stimuli/Nonsocial1.png,stimuli/Nonsocial2.png,cs_plus_ns,,,,,,,0,0,0,0,,,,,,,,,,,,,,,,,8,2,34,1,,,,,,,,,,,,,,,,,,,,,,,3494.1562447999604,7,0.01477399980649352,0.5628485998604447,39,A,2023-12-20_13h11.42.618,gca_avoidance_task,2022.2.4,143.63441026039473,
positions.xlsx,stimuli.xlsx,stimuli/Social1.png,stimuli/Social2.png,stimuli/Nonsocial1.png,stimuli/Nonsocial2.png,cs_minus_s,,,,,,,0,0,0,0,,,,,,,,,,,,,,,,,8,3,35,2,,,,,,,,,,,,,,,,,,,,,,,3508.794591499958,6,0.01435830001719296,2.2991473998408765,39,A,2023-12-20_13h11.42.618,gca_avoidance_task,2022.2.4,143.63441026039473,
positions.xlsx,stimuli.xlsx,stimuli/Social1.png,stimuli/Social2.png,stimuli/Nonsocial1.png,stimuli/Nonsocial2.png,cs_plus_s,,,,,,,0,0,0,0,,,,,,,,,,,,,,,,,9,0,36,0,,,,,,,,,,,,,,,,,,,,,,,3523.884304899955,5,0.014324399875476956,2.9587137999478728,39,A,2023-12-20_13h11.42.618,gca_avoidance_task,2022.2.4,143.63441026039473,
positions.xlsx,stimuli.xlsx,stimuli/Social1.png,stimuli/Social2.png,stimuli/Nonsocial1.png,stimuli/Nonsocial2.png,cs_minus_s,,,,,,,0,0,0,0,,,,,,,,,,,,,,,,,9,1,37,2,,,,,,,,,,,,,,,,,,,,,,,3539.168487299932,3,0.014171699993312359,2.653177100000903,39,A,2023-12-20_13h11.42.618,gca_avoidance_task,2022.2.4,143.63441026039473,
positions.xlsx,stimuli.xlsx,stimuli/Social1.png,stimuli/Social2.png,stimuli/Nonsocial1.png,stimuli/Nonsocial2.png,cs_plus_ns,,,,,,,0,0,0,0,,,,,,,,,,,,,,,,,9,2,38,1,,,,,,,,,,,,,,,,,,,,,,,3554.3553482000716,4,0.014270700048655272,0.7157529999967664,39,A,2023-12-20_13h11.42.618,gca_avoidance_task,2022.2.4,143.63441026039473,
positions.xlsx,stimuli.xlsx,stimuli/Social1.png,stimuli/Social2.png,stimuli/Nonsocial1.png,stimuli/Nonsocial2.png,cs_minus_ns,,,,,,,0,0,0,0,,,,,,,,,,,,,,,,,9,3,39,3,,,,,,,,,,,,,,,,,,,,,,,3569.0562136999797,3,0.01415949990041554,0.8684912000317127,39,A,2023-12-20_13h11.42.618,gca_avoidance_task,2022.2.4,143.63441026039473,
positions.xlsx,stimuli.xlsx,stimuli/Social1.png,stimuli/Social2.png,stimuli/Nonsocial1.png,stimuli/Nonsocial2.png,cs_minus_ns,,,,,,,0,0,0,0,,,,,,,,,,,,,,,,,,,,,0,0,0,3,,,,,3582.6737277999055,8.0,3.9039493000600487,,,,,,,,,,,,,,,,39,A,2023-12-20_13h11.42.618,gca_avoidance_task,2022.2.4,143.63441026039473,
positions.xlsx,stimuli.xlsx,stimuli/Social1.png,stimuli/Social2.png,stimuli/Nonsocial1.png,stimuli/Nonsocial2.png,cs_minus_s,,,,,,,0,0,0,0,,,,,,,,,,,,,,,,,,,,,0,1,1,2,,,,,3588.2706730999053,6.0,2.4595260999631137,,,,,,,,,,,,,,,,39,A,2023-12-20_13h11.42.618,gca_avoidance_task,2022.2.4,143.63441026039473,
positions.xlsx,stimuli.xlsx,stimuli/Social1.png,stimuli/Social2.png,stimuli/Nonsocial1.png,stimuli/Nonsocial2.png,cs_plus_ns,,,,,,,0,0,0,0,,,,,,,,,,,,,,,,,,,,,0,2,2,1,,,,,3591.7289275999647,4.0,2.2782304999418557,,,,,,,,,,,,,,,,39,A,2023-12-20_13h11.42.618,gca_avoidance_task,2022.2.4,143.63441026039473,
positions.xlsx,stimuli.xlsx,stimuli/Social1.png,stimuli/Social2.png,stimuli/Nonsocial1.png,stimuli/Nonsocial2.png,cs_plus_s,,,,,,,0,0,0,0,,,,,,,,,,,,,,,,,,,,,0,3,3,0,,,,,3595.7634819999803,3.0,2.0015060999430716,,,,,,,,,,,,,,,,39,A,2023-12-20_13h11.42.618,gca_avoidance_task,2022.2.4,143.63441026039473,
