posFile,stimFile,cs_plus_s,cs_minus_s,cs_plus_ns,cs_minus_ns,stimtype,position,trialtype,trials_threshold.thisRepN,trials_threshold.thisTrialN,trials_threshold.thisN,trials_threshold.thisIndex,blocks.thisRepN,blocks.thisTrialN,blocks.thisN,blocks.thisIndex,ratingtrials1.thisRepN,ratingtrials1.thisTrialN,ratingtrials1.thisN,ratingtrials1.thisIndex,learning_trials.thisRepN,learning_trials.thisTrialN,learning_trials.thisN,learning_trials.thisIndex,trials.thisRepN,trials.thisTrialN,trials.thisN,trials.thisIndex,ratingtrials2.thisRepN,ratingtrials2.thisTrialN,ratingtrials2.thisN,ratingtrials2.thisIndex,testtrials.thisRepN,testtrials.thisTrialN,testtrials.thisN,testtrials.thisIndex,ratingtrials3.thisRepN,ratingtrials3.thisTrialN,ratingtrials3.thisN,ratingtrials3.thisIndex,textStart.started,sliderPainT.response,sliderPainT.rt,textStartExp.started,imageRating.started,sliderStim.response,sliderStim.rt,textStartTask.started,image.started,score,outcome,roi.numLooks,roi.timesOn,roi.timesOff,imageFeedback.started,sliderPain.response,sliderPain.rt,textTestInstr.started,imageTest.started,roiTest.numLooks,roiTest.timesOn,roiTest.timesOff,participant,group,date,expName,psychopyVersion,frameRate,
,,,,,,,,,0,0,0,0,,,,,,,,,,,,,,,,,,,,,,,,,,,,,23.07994189998135,None,None,,,,,,,,,,,,,,,,,,,,50,C,2024-01-15_08h37.21.838,gca_avoidance_task,2022.2.4,143.92340956409535,
,,,,,,,,,1,0,1,0,,,,,,,,,,,,,,,,,,,,,,,,,,,,,,None,None,,,,,,,,,,,,,,,,,,,,50,C,2024-01-15_08h37.21.838,gca_avoidance_task,2022.2.4,143.92340956409535,
,,,,,,,,,2,0,2,0,,,,,,,,,,,,,,,,,,,,,,,,,,,,,,1.0,11.783269499894232,,,,,,,,,,,,,,,,,,,,50,C,2024-01-15_08h37.21.838,gca_avoidance_task,2022.2.4,143.92340956409535,
,,,,,,,,,3,0,3,0,,,,,,,,,,,,,,,,,,,,,,,,,,,,,,1.0,0.9529680998530239,,,,,,,,,,,,,,,,,,,,50,C,2024-01-15_08h37.21.838,gca_avoidance_task,2022.2.4,143.92340956409535,
,,,,,,,,,4,0,4,0,,,,,,,,,,,,,,,,,,,,,,,,,,,,,,2.0,0.7984990999102592,,,,,,,,,,,,,,,,,,,,50,C,2024-01-15_08h37.21.838,gca_avoidance_task,2022.2.4,143.92340956409535,
,,,,,,,,,5,0,5,0,,,,,,,,,,,,,,,,,,,,,,,,,,,,,,3.0,1.2218055999837816,,,,,,,,,,,,,,,,,,,,50,C,2024-01-15_08h37.21.838,gca_avoidance_task,2022.2.4,143.92340956409535,
,,,,,,,,,6,0,6,0,,,,,,,,,,,,,,,,,,,,,,,,,,,,,,3.0,1.008164499886334,,,,,,,,,,,,,,,,,,,,50,C,2024-01-15_08h37.21.838,gca_avoidance_task,2022.2.4,143.92340956409535,
,,,,,,,,,7,0,7,0,,,,,,,,,,,,,,,,,,,,,,,,,,,,,,3.0,1.3032597000710666,,,,,,,,,,,,,,,,,,,,50,C,2024-01-15_08h37.21.838,gca_avoidance_task,2022.2.4,143.92340956409535,
,,,,,,,,,8,0,8,0,,,,,,,,,,,,,,,,,,,,,,,,,,,,,,4.0,0.7820557998493314,,,,,,,,,,,,,,,,,,,,50,C,2024-01-15_08h37.21.838,gca_avoidance_task,2022.2.4,143.92340956409535,
,,,,,,,,,9,0,9,0,,,,,,,,,,,,,,,,,,,,,,,,,,,,,,5.0,1.5227178998757154,,,,,,,,,,,,,,,,,,,,50,C,2024-01-15_08h37.21.838,gca_avoidance_task,2022.2.4,143.92340956409535,
,,,,,,,,,10,0,10,0,,,,,,,,,,,,,,,,,,,,,,,,,,,,,,5.0,1.1180688999593258,,,,,,,,,,,,,,,,,,,,50,C,2024-01-15_08h37.21.838,gca_avoidance_task,2022.2.4,143.92340956409535,
,,,,,,,,,11,0,11,0,,,,,,,,,,,,,,,,,,,,,,,,,,,,,,6.0,1.0714665001723915,,,,,,,,,,,,,,,,,,,,50,C,2024-01-15_08h37.21.838,gca_avoidance_task,2022.2.4,143.92340956409535,
,,,,,,,,,12,0,12,0,,,,,,,,,,,,,,,,,,,,,,,,,,,,,,6.0,0.8447426001075655,,,,,,,,,,,,,,,,,,,,50,C,2024-01-15_08h37.21.838,gca_avoidance_task,2022.2.4,143.92340956409535,
,,,,,,,,,13,0,13,0,,,,,,,,,,,,,,,,,,,,,,,,,,,,,,6.0,0.7286055001895875,,,,,,,,,,,,,,,,,,,,50,C,2024-01-15_08h37.21.838,gca_avoidance_task,2022.2.4,143.92340956409535,
,,,,,,,,,14,0,14,0,,,,,,,,,,,,,,,,,,,,,,,,,,,,,,5.0,2.8037460001651198,,,,,,,,,,,,,,,,,,,,50,C,2024-01-15_08h37.21.838,gca_avoidance_task,2022.2.4,143.92340956409535,
,,,,,,,,,15,0,15,0,,,,,,,,,,,,,,,,,,,,,,,,,,,,,,6.0,0.814796700142324,,,,,,,,,,,,,,,,,,,,50,C,2024-01-15_08h37.21.838,gca_avoidance_task,2022.2.4,143.92340956409535,
,,,,,,,,,16,0,16,0,,,,,,,,,,,,,,,,,,,,,,,,,,,,,,6.0,3.9981988999061286,,,,,,,,,,,,,,,,,,,,50,C,2024-01-15_08h37.21.838,gca_avoidance_task,2022.2.4,143.92340956409535,
,,,,,,,,,17,0,17,0,,,,,,,,,,,,,,,,,,,,,,,,,,,,,,6.0,1.6133322999812663,,,,,,,,,,,,,,,,,,,,50,C,2024-01-15_08h37.21.838,gca_avoidance_task,2022.2.4,143.92340956409535,
,,,,,,,,,18,0,18,0,,,,,,,,,,,,,,,,,,,,,,,,,,,,,,7.0,4.784460399998352,,,,,,,,,,,,,,,,,,,,50,C,2024-01-15_08h37.21.838,gca_avoidance_task,2022.2.4,143.92340956409535,
,,,,,,,,,19,0,19,0,,,,,,,,,,,,,,,,,,,,,,,,,,,,,,6.0,2.4645450999960303,,,,,,,,,,,,,,,,,,,,50,C,2024-01-15_08h37.21.838,gca_avoidance_task,2022.2.4,143.92340956409535,
positions.xlsx,stimuli.xlsx,stimuli/Social1.png,stimuli/Social2.png,stimuli/Nonsocial2.png,stimuli/Nonsocial1.png,cs_minus_ns,,,,,,,0,0,0,0,0,0,0,3,,,,,,,,,,,,,,,,,,,,,,,,2398.733889499912,2464.02265729988,6.0,4.237687300192192,,,,,,,,,,,,,,,,50,C,2024-01-15_08h37.21.838,gca_avoidance_task,2022.2.4,143.92340956409535,
positions.xlsx,stimuli.xlsx,stimuli/Social1.png,stimuli/Social2.png,stimuli/Nonsocial2.png,stimuli/Nonsocial1.png,cs_minus_s,,,,,,,0,0,0,0,0,1,1,2,,,,,,,,,,,,,,,,,,,,,,,,,2470.314063599799,6.0,8.526714500039816,,,,,,,,,,,,,,,,50,C,2024-01-15_08h37.21.838,gca_avoidance_task,2022.2.4,143.92340956409535,
positions.xlsx,stimuli.xlsx,stimuli/Social1.png,stimuli/Social2.png,stimuli/Nonsocial2.png,stimuli/Nonsocial1.png,cs_plus_ns,,,,,,,0,0,0,0,0,2,2,1,,,,,,,,,,,,,,,,,,,,,,,,,2480.744191299891,5.0,3.433322200085968,,,,,,,,,,,,,,,,50,C,2024-01-15_08h37.21.838,gca_avoidance_task,2022.2.4,143.92340956409535,
positions.xlsx,stimuli.xlsx,stimuli/Social1.png,stimuli/Social2.png,stimuli/Nonsocial2.png,stimuli/Nonsocial1.png,cs_plus_s,,,,,,,0,0,0,0,0,3,3,0,,,,,,,,,,,,,,,,,,,,,,,,,2485.4176127000246,6.0,3.851715800119564,,,,,,,,,,,,,,,,50,C,2024-01-15_08h37.21.838,gca_avoidance_task,2022.2.4,143.92340956409535,
positions.xlsx,stimuli.xlsx,stimuli/Social1.png,stimuli/Social2.png,stimuli/Nonsocial2.png,stimuli/Nonsocial1.png,,"(-0.7, 0.5)",cs_minus_ns,,,,,0,0,0,0,,,,,0,0,0,12,,,,,,,,,,,,,,,,,,,,,,,,2490.5146399999503,2517.694101399975,5,reward,1,0.36133389989845455,0.3613376999273896,2518.076028799871,,,,,,,,50,C,2024-01-15_08h37.21.838,gca_avoidance_task,2022.2.4,143.92340956409535,
positions.xlsx,stimuli.xlsx,stimuli/Social1.png,stimuli/Social2.png,stimuli/Nonsocial2.png,stimuli/Nonsocial1.png,,"(-0.7, -0.5)",cs_plus_s,,,,,0,0,0,0,,,,,0,1,1,1,,,,,,,,,,,,,,,,,,,,,,,,,2527.5131588999648,5,shock,1,0.20816859998740256,0.2150338999927044,2527.7353695000056,,,,,,,,50,C,2024-01-15_08h37.21.838,gca_avoidance_task,2022.2.4,143.92340956409535,
positions.xlsx,stimuli.xlsx,stimuli/Social1.png,stimuli/Social2.png,stimuli/Nonsocial2.png,stimuli/Nonsocial1.png,,"(-0.7, 0.5)",cs_plus_ns,,,,,0,0,0,0,,,,,0,2,2,8,,,,,,,,,,,,,,,,,,,,,,,,,2537.609980399953,5,shock,1,0.4862305000424385,0.4862341999541968,2538.1030084998347,,,,,,,,50,C,2024-01-15_08h37.21.838,gca_avoidance_task,2022.2.4,143.92340956409535,
positions.xlsx,stimuli.xlsx,stimuli/Social1.png,stimuli/Social2.png,stimuli/Nonsocial2.png,stimuli/Nonsocial1.png,,"(0.7, -0.5)",cs_minus_ns,,,,,0,0,0,0,,,,,0,3,3,15,,,,,,,,,,,,,,,,,,,,,,,,,2547.5887329999823,10,reward,1,0.20209400006569922,0.2020976000931114,2547.7970705998596,,,,,,,,50,C,2024-01-15_08h37.21.838,gca_avoidance_task,2022.2.4,143.92340956409535,
positions.xlsx,stimuli.xlsx,stimuli/Social1.png,stimuli/Social2.png,stimuli/Nonsocial2.png,stimuli/Nonsocial1.png,,"(0.7, 0.5)",cs_minus_s,,,,,0,0,0,0,,,,,0,4,4,6,,,,,,,,,,,,,,,,,,,,,,,,,2558.1785861998796,15,reward,1,4.118015100015327,4.118018600158393,2562.303443599958,,,,,,,,50,C,2024-01-15_08h37.21.838,gca_avoidance_task,2022.2.4,143.92340956409535,
positions.xlsx,stimuli.xlsx,stimuli/Social1.png,stimuli/Social2.png,stimuli/Nonsocial2.png,stimuli/Nonsocial1.png,,"(-0.7, -0.5)",cs_plus_ns,,,,,0,0,0,0,,,,,0,5,5,9,,,,,,,,,,,,,,,,,,,,,,,,,2572.5530143999495,15,shock,1,0.18765740003436804,0.1876612000633031,2572.747445899993,,,,,,,,50,C,2024-01-15_08h37.21.838,gca_avoidance_task,2022.2.4,143.92340956409535,
positions.xlsx,stimuli.xlsx,stimuli/Social1.png,stimuli/Social2.png,stimuli/Nonsocial2.png,stimuli/Nonsocial1.png,,"(0.7, -0.5)",cs_plus_ns,,,,,0,0,0,0,,,,,0,6,6,11,,,,,,,,,,,,,,,,,,,,,,,,,2582.809539299924,15,shock,1,0.1672594000119716,0.16726300003938377,2582.983143699821,,,,,,,,50,C,2024-01-15_08h37.21.838,gca_avoidance_task,2022.2.4,143.92340956409535,
positions.xlsx,stimuli.xlsx,stimuli/Social1.png,stimuli/Social2.png,stimuli/Nonsocial2.png,stimuli/Nonsocial1.png,,"(0.7, 0.5)",cs_plus_s,,,,,0,0,0,0,,,,,0,7,7,2,,,,,,,,,,,,,,,,,,,,,,,,,2592.5661230999976,15,shock,1,0.5349983999039978,0.5350019000470638,2593.100797699997,,,,,,,,50,C,2024-01-15_08h37.21.838,gca_avoidance_task,2022.2.4,143.92340956409535,
positions.xlsx,stimuli.xlsx,stimuli/Social1.png,stimuli/Social2.png,stimuli/Nonsocial2.png,stimuli/Nonsocial1.png,,"(-0.7, 0.5)",cs_plus_s,,,,,0,0,0,0,,,,,0,8,8,0,,,,,,,,,,,,,,,,,,,,,,,,,2602.2254408998415,15,shock,1,0.4376239001285285,0.4376274000387639,2602.662931900006,,,,,,,,50,C,2024-01-15_08h37.21.838,gca_avoidance_task,2022.2.4,143.92340956409535,
positions.xlsx,stimuli.xlsx,stimuli/Social1.png,stimuli/Social2.png,stimuli/Nonsocial2.png,stimuli/Nonsocial1.png,,"(-0.7, -0.5)",cs_minus_ns,,,,,0,0,0,0,,,,,0,9,9,13,,,,,,,,,,,,,,,,,,,,,,,,,2611.870869099861,20,reward,1,0.4934260998852551,0.49343009991571307,2612.3777985998895,,,,,,,,50,C,2024-01-15_08h37.21.838,gca_avoidance_task,2022.2.4,143.92340956409535,
positions.xlsx,stimuli.xlsx,stimuli/Social1.png,stimuli/Social2.png,stimuli/Nonsocial2.png,stimuli/Nonsocial1.png,,"(0.7, -0.5)",cs_minus_s,,,,,0,0,0,0,,,,,0,10,10,7,,,,,,,,,,,,,,,,,,,,,,,,,2622.2246549997944,25,reward,1,0.514077799860388,0.5140809998847544,2622.7454662998207,,,,,,,,50,C,2024-01-15_08h37.21.838,gca_avoidance_task,2022.2.4,143.92340956409535,
positions.xlsx,stimuli.xlsx,stimuli/Social1.png,stimuli/Social2.png,stimuli/Nonsocial2.png,stimuli/Nonsocial1.png,,"(0.7, 0.5)",cs_minus_ns,,,,,0,0,0,0,,,,,0,11,11,14,,,,,,,,,,,,,,,,,,,,,,,,,2632.0297952999827,30,reward,1,0.7570980000309646,0.757101799827069,2632.7936465998646,,,,,,,,50,C,2024-01-15_08h37.21.838,gca_avoidance_task,2022.2.4,143.92340956409535,
positions.xlsx,stimuli.xlsx,stimuli/Social1.png,stimuli/Social2.png,stimuli/Nonsocial2.png,stimuli/Nonsocial1.png,,"(0.7, -0.5)",cs_plus_s,,,,,0,0,0,0,,,,,0,12,12,3,,,,,,,,,,,,,,,,,,,,,,,,,2642.0363328999374,30,none,0,,,2647.0500089998823,,,,,,,,50,C,2024-01-15_08h37.21.838,gca_avoidance_task,2022.2.4,143.92340956409535,
positions.xlsx,stimuli.xlsx,stimuli/Social1.png,stimuli/Social2.png,stimuli/Nonsocial2.png,stimuli/Nonsocial1.png,,"(-0.7, -0.5)",cs_minus_s,,,,,0,0,0,0,,,,,0,13,13,5,,,,,,,,,,,,,,,,,,,,,,,,,2656.160750299925,35,reward,1,0.25029520015232265,0.2502986001782119,2656.417688299902,,,,,,,,50,C,2024-01-15_08h37.21.838,gca_avoidance_task,2022.2.4,143.92340956409535,
positions.xlsx,stimuli.xlsx,stimuli/Social1.png,stimuli/Social2.png,stimuli/Nonsocial2.png,stimuli/Nonsocial1.png,,"(-0.7, 0.5)",cs_minus_s,,,,,0,0,0,0,,,,,0,14,14,4,,,,,,,,,,,,,,,,,,,,,,,,,2665.7714842997957,40,reward,1,0.5692612000275403,0.5692781000398099,2666.347873199964,,,,,,,,50,C,2024-01-15_08h37.21.838,gca_avoidance_task,2022.2.4,143.92340956409535,
positions.xlsx,stimuli.xlsx,stimuli/Social1.png,stimuli/Social2.png,stimuli/Nonsocial2.png,stimuli/Nonsocial1.png,,"(0.7, 0.5)",cs_plus_ns,,,,,0,0,0,0,,,,,0,15,15,10,,,,,,,,,,,,,,,,,,,,,,,,,2676.618280199822,40,none,0,,,2681.6250368999317,,,,,,,,50,C,2024-01-15_08h37.21.838,gca_avoidance_task,2022.2.4,143.92340956409535,
positions.xlsx,stimuli.xlsx,stimuli/Social1.png,stimuli/Social2.png,stimuli/Nonsocial2.png,stimuli/Nonsocial1.png,,"(-0.7, 0.5)",cs_minus_ns,,,,,0,0,0,0,,,,,1,0,16,12,,,,,,,,,,,,,,,,,,,,,,,,,2690.90246799984,45,reward,1,0.45127870002761483,0.45128259994089603,2691.3607490998693,,,,,,,,50,C,2024-01-15_08h37.21.838,gca_avoidance_task,2022.2.4,143.92340956409535,
positions.xlsx,stimuli.xlsx,stimuli/Social1.png,stimuli/Social2.png,stimuli/Nonsocial2.png,stimuli/Nonsocial1.png,,"(0.7, -0.5)",cs_plus_s,,,,,0,0,0,0,,,,,1,1,17,3,,,,,,,,,,,,,,,,,,,,,,,,,2700.374261799967,45,none,0,,,2705.3809984999243,,,,,,,,50,C,2024-01-15_08h37.21.838,gca_avoidance_task,2022.2.4,143.92340956409535,
positions.xlsx,stimuli.xlsx,stimuli/Social1.png,stimuli/Social2.png,stimuli/Nonsocial2.png,stimuli/Nonsocial1.png,,"(0.7, 0.5)",cs_minus_ns,,,,,0,0,0,0,,,,,1,2,18,14,,,,,,,,,,,,,,,,,,,,,,,,,2715.28339649993,50,reward,1,0.6737667000852525,0.6737703001126647,2715.9639310999773,,,,,,,,50,C,2024-01-15_08h37.21.838,gca_avoidance_task,2022.2.4,143.92340956409535,
positions.xlsx,stimuli.xlsx,stimuli/Social1.png,stimuli/Social2.png,stimuli/Nonsocial2.png,stimuli/Nonsocial1.png,,"(0.7, -0.5)",cs_minus_s,,,,,0,0,0,0,,,,,1,3,19,7,,,,,,,,,,,,,,,,,,,,,,,,,2725.067729699891,55,reward,1,0.6324659001547843,0.6324698000680655,2725.7066201998387,,,,,,,,50,C,2024-01-15_08h37.21.838,gca_avoidance_task,2022.2.4,143.92340956409535,
positions.xlsx,stimuli.xlsx,stimuli/Social1.png,stimuli/Social2.png,stimuli/Nonsocial2.png,stimuli/Nonsocial1.png,,"(0.7, -0.5)",cs_plus_ns,,,,,0,0,0,0,,,,,1,4,20,11,,,,,,,,,,,,,,,,,,,,,,,,,2735.2201035998296,55,none,0,,,2740.22685560002,,,,,,,,50,C,2024-01-15_08h37.21.838,gca_avoidance_task,2022.2.4,143.92340956409535,
positions.xlsx,stimuli.xlsx,stimuli/Social1.png,stimuli/Social2.png,stimuli/Nonsocial2.png,stimuli/Nonsocial1.png,,"(0.7, 0.5)",cs_minus_s,,,,,0,0,0,0,,,,,1,5,21,6,,,,,,,,,,,,,,,,,,,,,,,,,2750.122288499959,60,reward,1,0.5697867998387665,0.5697906999848783,2750.6987230000086,,,,,,,,50,C,2024-01-15_08h37.21.838,gca_avoidance_task,2022.2.4,143.92340956409535,
positions.xlsx,stimuli.xlsx,stimuli/Social1.png,stimuli/Social2.png,stimuli/Nonsocial2.png,stimuli/Nonsocial1.png,,"(-0.7, -0.5)",cs_plus_s,,,,,0,0,0,0,,,,,1,6,22,1,,,,,,,,,,,,,,,,,,,,,,,,,2760.246880099876,60,shock,1,0.18756720004603267,0.18757100007496774,2760.4413713999093,,,,,,,,50,C,2024-01-15_08h37.21.838,gca_avoidance_task,2022.2.4,143.92340956409535,
positions.xlsx,stimuli.xlsx,stimuli/Social1.png,stimuli/Social2.png,stimuli/Nonsocial2.png,stimuli/Nonsocial1.png,,"(-0.7, 0.5)",cs_minus_s,,,,,0,0,0,0,,,,,1,7,23,4,,,,,,,,,,,,,,,,,,,,,,,,,2769.385407099966,65,reward,1,0.47239649994298816,0.47240009997040033,2769.864551199833,,,,,,,,50,C,2024-01-15_08h37.21.838,gca_avoidance_task,2022.2.4,143.92340956409535,
positions.xlsx,stimuli.xlsx,stimuli/Social1.png,stimuli/Social2.png,stimuli/Nonsocial2.png,stimuli/Nonsocial1.png,,"(0.7, 0.5)",cs_plus_ns,,,,,0,0,0,0,,,,,1,8,24,10,,,,,,,,,,,,,,,,,,,,,,,,,2778.98225599993,65,none,0,,,2783.9889995998237,,,,,,,,50,C,2024-01-15_08h37.21.838,gca_avoidance_task,2022.2.4,143.92340956409535,
positions.xlsx,stimuli.xlsx,stimuli/Social1.png,stimuli/Social2.png,stimuli/Nonsocial2.png,stimuli/Nonsocial1.png,,"(-0.7, 0.5)",cs_plus_s,,,,,0,0,0,0,,,,,1,9,25,0,,,,,,,,,,,,,,,,,,,,,,,,,2792.7803131998517,65,shock,1,0.29172679991461337,0.29173059994354844,2793.0788946999237,,,,,,,,50,C,2024-01-15_08h37.21.838,gca_avoidance_task,2022.2.4,143.92340956409535,
positions.xlsx,stimuli.xlsx,stimuli/Social1.png,stimuli/Social2.png,stimuli/Nonsocial2.png,stimuli/Nonsocial1.png,,"(-0.7, -0.5)",cs_minus_s,,,,,0,0,0,0,,,,,1,10,26,5,,,,,,,,,,,,,,,,,,,,,,,,,2802.1132778998,70,reward,1,0.5838534000795335,0.5838570999912918,2802.70350850001,,,,,,,,50,C,2024-01-15_08h37.21.838,gca_avoidance_task,2022.2.4,143.92340956409535,
positions.xlsx,stimuli.xlsx,stimuli/Social1.png,stimuli/Social2.png,stimuli/Nonsocial2.png,stimuli/Nonsocial1.png,,"(-0.7, -0.5)",cs_minus_ns,,,,,0,0,0,0,,,,,1,11,27,13,,,,,,,,,,,,,,,,,,,,,,,,,2812.4461783999577,75,reward,1,0.5694516999647021,0.5694554999936372,2813.022543199826,,,,,,,,50,C,2024-01-15_08h37.21.838,gca_avoidance_task,2022.2.4,143.92340956409535,
positions.xlsx,stimuli.xlsx,stimuli/Social1.png,stimuli/Social2.png,stimuli/Nonsocial2.png,stimuli/Nonsocial1.png,,"(0.7, 0.5)",cs_plus_s,,,,,0,0,0,0,,,,,1,12,28,2,,,,,,,,,,,,,,,,,,,,,,,,,2822.3763413999695,75,none,0,,,2827.3830801998265,,,,,,,,50,C,2024-01-15_08h37.21.838,gca_avoidance_task,2022.2.4,143.92340956409535,
positions.xlsx,stimuli.xlsx,stimuli/Social1.png,stimuli/Social2.png,stimuli/Nonsocial2.png,stimuli/Nonsocial1.png,,"(-0.7, 0.5)",cs_plus_ns,,,,,0,0,0,0,,,,,1,13,29,8,,,,,,,,,,,,,,,,,,,,,,,,,2836.5563311998267,75,shock,1,0.4931241001468152,0.49312790017575026,2837.0563502998557,,,,,,,,50,C,2024-01-15_08h37.21.838,gca_avoidance_task,2022.2.4,143.92340956409535,
positions.xlsx,stimuli.xlsx,stimuli/Social1.png,stimuli/Social2.png,stimuli/Nonsocial2.png,stimuli/Nonsocial1.png,,"(0.7, -0.5)",cs_minus_ns,,,,,0,0,0,0,,,,,1,14,30,15,,,,,,,,,,,,,,,,,,,,,,,,,2846.5351000998635,80,reward,1,0.6459480999037623,0.6459518999326974,2847.187867099885,,,,,,,,50,C,2024-01-15_08h37.21.838,gca_avoidance_task,2022.2.4,143.92340956409535,
positions.xlsx,stimuli.xlsx,stimuli/Social1.png,stimuli/Social2.png,stimuli/Nonsocial2.png,stimuli/Nonsocial1.png,,"(-0.7, -0.5)",cs_plus_ns,,,,,0,0,0,0,,,,,1,15,31,9,,,,,,,,,,,,,,,,,,,,,,,,,2856.8680398999713,80,shock,1,0.23623370006680489,0.2362373999785632,2857.111095899949,,,,,,,,50,C,2024-01-15_08h37.21.838,gca_avoidance_task,2022.2.4,143.92340956409535,
positions.xlsx,stimuli.xlsx,stimuli/Social1.png,stimuli/Social2.png,stimuli/Nonsocial2.png,stimuli/Nonsocial1.png,,"(-0.7, 0.5)",cs_plus_ns,,,,,0,0,0,0,,,,,,,,,0,0,0,8,,,,,,,,,,,,,,,,,,,,,2877.020018799929,80,shock,1,0.47216909984126687,0.4721727999858558,2877.499196199933,,,,,,,,50,C,2024-01-15_08h37.21.838,gca_avoidance_task,2022.2.4,143.92340956409535,
positions.xlsx,stimuli.xlsx,stimuli/Social1.png,stimuli/Social2.png,stimuli/Nonsocial2.png,stimuli/Nonsocial1.png,,"(0.7, 0.5)",cs_minus_ns,,,,,0,0,0,0,,,,,,,,,0,1,1,14,,,,,,,,,,,,,,,,,,,,,2886.7696143998764,85,reward,1,0.6667222001124173,0.6667259000241756,2887.443230099976,,,,,,,,50,C,2024-01-15_08h37.21.838,gca_avoidance_task,2022.2.4,143.92340956409535,
positions.xlsx,stimuli.xlsx,stimuli/Social1.png,stimuli/Social2.png,stimuli/Nonsocial2.png,stimuli/Nonsocial1.png,,"(0.7, -0.5)",cs_minus_ns,,,,,0,0,0,0,,,,,,,,,0,2,2,15,,,,,,,,,,,,,,,,,,,,,2897.1372442999855,90,reward,1,0.5282868000213057,0.5282906000502408,2897.6719537999015,,,,,,,,50,C,2024-01-15_08h37.21.838,gca_avoidance_task,2022.2.4,143.92340956409535,
positions.xlsx,stimuli.xlsx,stimuli/Social1.png,stimuli/Social2.png,stimuli/Nonsocial2.png,stimuli/Nonsocial1.png,,"(0.7, -0.5)",cs_minus_s,,,,,0,0,0,0,,,,,,,,,0,3,3,7,,,,,,,,,,,,,,,,,,,,,2907.539627399994,95,reward,1,0.18068110011518002,0.1806849001441151,2907.7271354999393,,,,,,,,50,C,2024-01-15_08h37.21.838,gca_avoidance_task,2022.2.4,143.92340956409535,
positions.xlsx,stimuli.xlsx,stimuli/Social1.png,stimuli/Social2.png,stimuli/Nonsocial2.png,stimuli/Nonsocial1.png,,"(0.7, 0.5)",cs_minus_s,,,,,0,0,0,0,,,,,,,,,0,4,4,6,,,,,,,,,,,,,,,,,,,,,2917.3101038997993,100,reward,1,0.6458767000585794,0.6458802002016455,2917.9627975998446,,,,,,,,50,C,2024-01-15_08h37.21.838,gca_avoidance_task,2022.2.4,143.92340956409535,
positions.xlsx,stimuli.xlsx,stimuli/Social1.png,stimuli/Social2.png,stimuli/Nonsocial2.png,stimuli/Nonsocial1.png,,"(-0.7, -0.5)",cs_plus_s,,,,,0,0,0,0,,,,,,,,,0,5,5,1,,,,,,,,,,,,,,,,,,,,,2927.7332717999816,100,shock,1,0.21558619989082217,0.21558999991975725,2927.9555040998384,,,,,,,,50,C,2024-01-15_08h37.21.838,gca_avoidance_task,2022.2.4,143.92340956409535,
positions.xlsx,stimuli.xlsx,stimuli/Social1.png,stimuli/Social2.png,stimuli/Nonsocial2.png,stimuli/Nonsocial1.png,,"(0.7, 0.5)",cs_plus_ns,,,,,0,0,0,0,,,,,,,,,0,6,6,10,,,,,,,,,,,,,,,,,,,,,2938.205058599822,100,shock,1,0.7292903999332339,0.7292942998465151,2938.9411595999263,,,,,,,,50,C,2024-01-15_08h37.21.838,gca_avoidance_task,2022.2.4,143.92340956409535,
positions.xlsx,stimuli.xlsx,stimuli/Social1.png,stimuli/Social2.png,stimuli/Nonsocial2.png,stimuli/Nonsocial1.png,,"(-0.7, 0.5)",cs_minus_s,,,,,0,0,0,0,,,,,,,,,0,7,7,4,,,,,,,,,,,,,,,,,,,,,2948.2741162998136,105,reward,1,0.4930751998908818,0.4998680998105556,2948.781015199842,,,,,,,,50,C,2024-01-15_08h37.21.838,gca_avoidance_task,2022.2.4,143.92340956409535,
positions.xlsx,stimuli.xlsx,stimuli/Social1.png,stimuli/Social2.png,stimuli/Nonsocial2.png,stimuli/Nonsocial1.png,,"(-0.7, -0.5)",cs_minus_ns,,,,,0,0,0,0,,,,,,,,,0,8,8,13,,,,,,,,,,,,,,,,,,,,,2958.336196999997,110,reward,1,0.2782827001065016,0.2782860998995602,2958.62095459993,,,,,,,,50,C,2024-01-15_08h37.21.838,gca_avoidance_task,2022.2.4,143.92340956409535,
positions.xlsx,stimuli.xlsx,stimuli/Social1.png,stimuli/Social2.png,stimuli/Nonsocial2.png,stimuli/Nonsocial1.png,,"(-0.7, 0.5)",cs_plus_s,,,,,0,0,0,0,,,,,,,,,0,9,9,0,,,,,,,,,,,,,,,,,,,,,2968.4538671998307,110,none,0,,,2973.460659299977,,,,,,,,50,C,2024-01-15_08h37.21.838,gca_avoidance_task,2022.2.4,143.92340956409535,
positions.xlsx,stimuli.xlsx,stimuli/Social1.png,stimuli/Social2.png,stimuli/Nonsocial2.png,stimuli/Nonsocial1.png,,"(0.7, -0.5)",cs_plus_s,,,,,0,0,0,0,,,,,,,,,0,10,10,3,,,,,,,,,,,,,,,,,,,,,2982.786578199826,110,none,0,,,2987.793348299805,,,,,,,,50,C,2024-01-15_08h37.21.838,gca_avoidance_task,2022.2.4,143.92340956409535,
positions.xlsx,stimuli.xlsx,stimuli/Social1.png,stimuli/Social2.png,stimuli/Nonsocial2.png,stimuli/Nonsocial1.png,,"(0.7, -0.5)",cs_plus_ns,,,,,0,0,0,0,,,,,,,,,0,11,11,11,,,,,,,,,,,,,,,,,,,,,2998.001280099852,110,none,0,,,3003.008070899872,,,,,,,,50,C,2024-01-15_08h37.21.838,gca_avoidance_task,2022.2.4,143.92340956409535,
positions.xlsx,stimuli.xlsx,stimuli/Social1.png,stimuli/Social2.png,stimuli/Nonsocial2.png,stimuli/Nonsocial1.png,,"(0.7, 0.5)",cs_plus_s,,,,,0,0,0,0,,,,,,,,,0,12,12,2,,,,,,,,,,,,,,,,,,,,,3011.8826575998683,110,none,0,,,3016.8894583999645,,,,,,,,50,C,2024-01-15_08h37.21.838,gca_avoidance_task,2022.2.4,143.92340956409535,
positions.xlsx,stimuli.xlsx,stimuli/Social1.png,stimuli/Social2.png,stimuli/Nonsocial2.png,stimuli/Nonsocial1.png,,"(-0.7, 0.5)",cs_minus_ns,,,,,0,0,0,0,,,,,,,,,0,13,13,12,,,,,,,,,,,,,,,,,,,,,3025.861303600017,115,reward,1,0.6456633999478072,0.6456670998595655,3026.5140586998314,,,,,,,,50,C,2024-01-15_08h37.21.838,gca_avoidance_task,2022.2.4,143.92340956409535,
positions.xlsx,stimuli.xlsx,stimuli/Social1.png,stimuli/Social2.png,stimuli/Nonsocial2.png,stimuli/Nonsocial1.png,,"(-0.7, -0.5)",cs_minus_s,,,,,0,0,0,0,,,,,,,,,0,14,14,5,,,,,,,,,,,,,,,,,,,,,3035.937269099988,120,reward,1,0.47943060006946325,0.47943409997969866,3036.4233587998897,,,,,,,,50,C,2024-01-15_08h37.21.838,gca_avoidance_task,2022.2.4,143.92340956409535,
positions.xlsx,stimuli.xlsx,stimuli/Social1.png,stimuli/Social2.png,stimuli/Nonsocial2.png,stimuli/Nonsocial1.png,,"(-0.7, -0.5)",cs_plus_ns,,,,,0,0,0,0,,,,,,,,,0,15,15,9,,,,,,,,,,,,,,,,,,,,,3045.2632797998376,120,none,0,,,3050.270069199847,,,,,,,,50,C,2024-01-15_08h37.21.838,gca_avoidance_task,2022.2.4,143.92340956409535,
positions.xlsx,stimuli.xlsx,stimuli/Social1.png,stimuli/Social2.png,stimuli/Nonsocial2.png,stimuli/Nonsocial1.png,,"(0.7, -0.5)",cs_plus_s,,,,,0,0,0,0,,,,,,,,,1,0,16,3,,,,,,,,,,,,,,,,,,,,,3059.026665299898,120,none,0,,,3064.0333947998006,,,,,,,,50,C,2024-01-15_08h37.21.838,gca_avoidance_task,2022.2.4,143.92340956409535,
positions.xlsx,stimuli.xlsx,stimuli/Social1.png,stimuli/Social2.png,stimuli/Nonsocial2.png,stimuli/Nonsocial1.png,,"(-0.7, 0.5)",cs_minus_s,,,,,0,0,0,0,,,,,,,,,1,1,17,4,,,,,,,,,,,,,,,,,,,,,3073.4496790999547,125,reward,1,0.30569050018675625,0.30569420009851456,3073.7621660998557,,,,,,,,50,C,2024-01-15_08h37.21.838,gca_avoidance_task,2022.2.4,143.92340956409535,
positions.xlsx,stimuli.xlsx,stimuli/Social1.png,stimuli/Social2.png,stimuli/Nonsocial2.png,stimuli/Nonsocial1.png,,"(0.7, 0.5)",cs_minus_ns,,,,,0,0,0,0,,,,,,,,,1,2,18,14,,,,,,,,,,,,,,,,,,,,,3083.26177360001,130,reward,1,0.500287399860099,0.500290900003165,3083.7687514999416,,,,,,,,50,C,2024-01-15_08h37.21.838,gca_avoidance_task,2022.2.4,143.92340956409535,
positions.xlsx,stimuli.xlsx,stimuli/Social1.png,stimuli/Social2.png,stimuli/Nonsocial2.png,stimuli/Nonsocial1.png,,"(0.7, -0.5)",cs_minus_ns,,,,,0,0,0,0,,,,,,,,,1,3,19,15,,,,,,,,,,,,,,,,,,,,,3093.1711170999333,135,reward,1,0.6109742999542505,0.6109780000988394,3093.7891716999,,,,,,,,50,C,2024-01-15_08h37.21.838,gca_avoidance_task,2022.2.4,143.92340956409535,
positions.xlsx,stimuli.xlsx,stimuli/Social1.png,stimuli/Social2.png,stimuli/Nonsocial2.png,stimuli/Nonsocial1.png,,"(0.7, 0.5)",cs_plus_ns,,,,,0,0,0,0,,,,,,,,,1,4,20,10,,,,,,,,,,,,,,,,,,,,,3103.587372999871,135,shock,1,0.5279779999982566,0.5279817001428455,3104.122055699816,,,,,,,,50,C,2024-01-15_08h37.21.838,gca_avoidance_task,2022.2.4,143.92340956409535,
positions.xlsx,stimuli.xlsx,stimuli/Social1.png,stimuli/Social2.png,stimuli/Nonsocial2.png,stimuli/Nonsocial1.png,,"(-0.7, 0.5)",cs_minus_ns,,,,,0,0,0,0,,,,,,,,,1,5,21,12,,,,,,,,,,,,,,,,,,,,,3113.267531399848,140,reward,1,0.2511923999991268,0.25119630014523864,3113.5244785000104,,,,,,,,50,C,2024-01-15_08h37.21.838,gca_avoidance_task,2022.2.4,143.92340956409535,
positions.xlsx,stimuli.xlsx,stimuli/Social1.png,stimuli/Social2.png,stimuli/Nonsocial2.png,stimuli/Nonsocial1.png,,"(0.7, 0.5)",cs_minus_s,,,,,0,0,0,0,,,,,,,,,1,6,22,6,,,,,,,,,,,,,,,,,,,,,3123.183784799883,145,reward,1,0.6461493999231607,0.6461528998333961,3123.8365273999516,,,,,,,,50,C,2024-01-15_08h37.21.838,gca_avoidance_task,2022.2.4,143.92340956409535,
positions.xlsx,stimuli.xlsx,stimuli/Social1.png,stimuli/Social2.png,stimuli/Nonsocial2.png,stimuli/Nonsocial1.png,,"(0.7, 0.5)",cs_plus_s,,,,,0,0,0,0,,,,,,,,,1,7,23,2,,,,,,,,,,,,,,,,,,,,,3133.093138199998,145,none,0,,,3138.0998756999616,,,,,,,,50,C,2024-01-15_08h37.21.838,gca_avoidance_task,2022.2.4,143.92340956409535,
positions.xlsx,stimuli.xlsx,stimuli/Social1.png,stimuli/Social2.png,stimuli/Nonsocial2.png,stimuli/Nonsocial1.png,,"(-0.7, -0.5)",cs_plus_ns,,,,,0,0,0,0,,,,,,,,,1,8,24,9,,,,,,,,,,,,,,,,,,,,,3148.0925164998043,145,shock,1,0.47262579994276166,0.4726293000858277,3148.5716801998205,,,,,,,,50,C,2024-01-15_08h37.21.838,gca_avoidance_task,2022.2.4,143.92340956409535,
positions.xlsx,stimuli.xlsx,stimuli/Social1.png,stimuli/Social2.png,stimuli/Nonsocial2.png,stimuli/Nonsocial1.png,,"(-0.7, 0.5)",cs_plus_s,,,,,0,0,0,0,,,,,,,,,1,9,25,0,,,,,,,,,,,,,,,,,,,,,3158.362938999897,145,shock,1,0.2985492998268455,0.30549789988435805,3158.675433699973,,,,,,,,50,C,2024-01-15_08h37.21.838,gca_avoidance_task,2022.2.4,143.92340956409535,
positions.xlsx,stimuli.xlsx,stimuli/Social1.png,stimuli/Social2.png,stimuli/Nonsocial2.png,stimuli/Nonsocial1.png,,"(-0.7, -0.5)",cs_minus_s,,,,,0,0,0,0,,,,,,,,,1,10,26,5,,,,,,,,,,,,,,,,,,,,,3167.584769099951,150,reward,1,0.5484925000928342,0.5484960998874158,3168.1403327998705,,,,,,,,50,C,2024-01-15_08h37.21.838,gca_avoidance_task,2022.2.4,143.92340956409535,
positions.xlsx,stimuli.xlsx,stimuli/Social1.png,stimuli/Social2.png,stimuli/Nonsocial2.png,stimuli/Nonsocial1.png,,"(-0.7, 0.5)",cs_plus_ns,,,,,0,0,0,0,,,,,,,,,1,11,27,8,,,,,,,,,,,,,,,,,,,,,3176.945562799927,150,none,0,,,3181.9523129998706,,,,,,,,50,C,2024-01-15_08h37.21.838,gca_avoidance_task,2022.2.4,143.92340956409535,
positions.xlsx,stimuli.xlsx,stimuli/Social1.png,stimuli/Social2.png,stimuli/Nonsocial2.png,stimuli/Nonsocial1.png,,"(-0.7, -0.5)",cs_minus_ns,,,,,0,0,0,0,,,,,,,,,1,12,28,13,,,,,,,,,,,,,,,,,,,,,3191.937989699887,155,reward,1,0.5908577998634428,0.5908613000065088,3192.535213599913,,,,,,,,50,C,2024-01-15_08h37.21.838,gca_avoidance_task,2022.2.4,143.92340956409535,
positions.xlsx,stimuli.xlsx,stimuli/Social1.png,stimuli/Social2.png,stimuli/Nonsocial2.png,stimuli/Nonsocial1.png,,"(0.7, -0.5)",cs_minus_s,,,,,0,0,0,0,,,,,,,,,1,13,29,7,,,,,,,,,,,,,,,,,,,,,3201.5765002998523,160,reward,1,0.20143139990977943,0.20143510005436838,3201.784846799914,,,,,,,,50,C,2024-01-15_08h37.21.838,gca_avoidance_task,2022.2.4,143.92340956409535,
positions.xlsx,stimuli.xlsx,stimuli/Social1.png,stimuli/Social2.png,stimuli/Nonsocial2.png,stimuli/Nonsocial1.png,,"(-0.7, -0.5)",cs_plus_s,,,,,0,0,0,0,,,,,,,,,1,14,30,1,,,,,,,,,,,,,,,,,,,,,3211.1455559998285,160,none,0,,,3216.1523021999747,,,,,,,,50,C,2024-01-15_08h37.21.838,gca_avoidance_task,2022.2.4,143.92340956409535,
positions.xlsx,stimuli.xlsx,stimuli/Social1.png,stimuli/Social2.png,stimuli/Nonsocial2.png,stimuli/Nonsocial1.png,,"(0.7, -0.5)",cs_plus_ns,,,,,0,0,0,0,,,,,,,,,1,15,31,11,,,,,,,,,,,,,,,,,,,,,3225.783870199928,160,none,0,,,3230.79065859993,,,,,,,,50,C,2024-01-15_08h37.21.838,gca_avoidance_task,2022.2.4,143.92340956409535,
positions.xlsx,stimuli.xlsx,stimuli/Social1.png,stimuli/Social2.png,stimuli/Nonsocial2.png,stimuli/Nonsocial1.png,,"(-0.7, -0.5)",cs_minus_s,,,,,0,0,0,0,,,,,,,,,2,0,32,5,,,,,,,,,,,,,,,,,,,,,3240.199974599993,165,reward,1,0.569994900142774,0.5699986000545323,3240.7763458997943,,,,,,,,50,C,2024-01-15_08h37.21.838,gca_avoidance_task,2022.2.4,143.92340956409535,
positions.xlsx,stimuli.xlsx,stimuli/Social1.png,stimuli/Social2.png,stimuli/Nonsocial2.png,stimuli/Nonsocial1.png,,"(0.7, 0.5)",cs_minus_ns,,,,,0,0,0,0,,,,,,,,,2,1,33,14,,,,,,,,,,,,,,,,,,,,,3250.387060199864,170,reward,1,0.7640903999563307,0.7640939000993967,3251.1578410000075,,,,,,,,50,C,2024-01-15_08h37.21.838,gca_avoidance_task,2022.2.4,143.92340956409535,
positions.xlsx,stimuli.xlsx,stimuli/Social1.png,stimuli/Social2.png,stimuli/Nonsocial2.png,stimuli/Nonsocial1.png,,"(-0.7, -0.5)",cs_minus_ns,,,,,0,0,0,0,,,,,,,,,2,2,34,13,,,,,,,,,,,,,,,,,,,,,3260.1158701998647,175,reward,1,0.2777410999406129,0.2777449998538941,3260.4005425998475,,,,,,,,50,C,2024-01-15_08h37.21.838,gca_avoidance_task,2022.2.4,143.92340956409535,
positions.xlsx,stimuli.xlsx,stimuli/Social1.png,stimuli/Social2.png,stimuli/Nonsocial2.png,stimuli/Nonsocial1.png,,"(0.7, 0.5)",cs_plus_ns,,,,,0,0,0,0,,,,,,,,,2,3,35,10,,,,,,,,,,,,,,,,,,,,,3269.087743199896,175,none,0,,,3274.0944473999552,,,,,,,,50,C,2024-01-15_08h37.21.838,gca_avoidance_task,2022.2.4,143.92340956409535,
positions.xlsx,stimuli.xlsx,stimuli/Social1.png,stimuli/Social2.png,stimuli/Nonsocial2.png,stimuli/Nonsocial1.png,,"(0.7, -0.5)",cs_minus_ns,,,,,0,0,0,0,,,,,,,,,2,4,36,15,,,,,,,,,,,,,,,,,,,,,3283.857970800018,180,reward,1,0.9167005000635982,0.9167176000773907,3284.7815328999422,,,,,,,,50,C,2024-01-15_08h37.21.838,gca_avoidance_task,2022.2.4,143.92340956409535,
positions.xlsx,stimuli.xlsx,stimuli/Social1.png,stimuli/Social2.png,stimuli/Nonsocial2.png,stimuli/Nonsocial1.png,,"(0.7, -0.5)",cs_plus_ns,,,,,0,0,0,0,,,,,,,,,2,5,37,11,,,,,,,,,,,,,,,,,,,,,3294.225601099897,180,none,0,,,3299.239269099897,,,,,,,,50,C,2024-01-15_08h37.21.838,gca_avoidance_task,2022.2.4,143.92340956409535,
positions.xlsx,stimuli.xlsx,stimuli/Social1.png,stimuli/Social2.png,stimuli/Nonsocial2.png,stimuli/Nonsocial1.png,,"(-0.7, 0.5)",cs_plus_s,,,,,0,0,0,0,,,,,,,,,2,6,38,0,,,,,,,,,,,,,,,,,,,,,3308.627807499841,180,shock,1,0.27093959995545447,0.2709432998672128,3308.905561799882,,,,,,,,50,C,2024-01-15_08h37.21.838,gca_avoidance_task,2022.2.4,143.92340956409535,
positions.xlsx,stimuli.xlsx,stimuli/Social1.png,stimuli/Social2.png,stimuli/Nonsocial2.png,stimuli/Nonsocial1.png,,"(-0.7, 0.5)",cs_minus_ns,,,,,0,0,0,0,,,,,,,,,2,7,39,12,,,,,,,,,,,,,,,,,,,,,3318.064896899974,185,reward,1,0.6735784998163581,0.6735820998437703,3318.7454647999257,,,,,,,,50,C,2024-01-15_08h37.21.838,gca_avoidance_task,2022.2.4,143.92340956409535,
positions.xlsx,stimuli.xlsx,stimuli/Social1.png,stimuli/Social2.png,stimuli/Nonsocial2.png,stimuli/Nonsocial1.png,,"(-0.7, -0.5)",cs_plus_s,,,,,0,0,0,0,,,,,,,,,2,8,40,1,,,,,,,,,,,,,,,,,,,,,3327.4048162999097,185,none,0,,,3332.411593399942,,,,,,,,50,C,2024-01-15_08h37.21.838,gca_avoidance_task,2022.2.4,143.92340956409535,
positions.xlsx,stimuli.xlsx,stimuli/Social1.png,stimuli/Social2.png,stimuli/Nonsocial2.png,stimuli/Nonsocial1.png,,"(0.7, 0.5)",cs_minus_s,,,,,0,0,0,0,,,,,,,,,2,9,41,6,,,,,,,,,,,,,,,,,,,,,3342.265350499889,190,reward,1,0.743369200034067,0.7433726999443024,3343.0153427999467,,,,,,,,50,C,2024-01-15_08h37.21.838,gca_avoidance_task,2022.2.4,143.92340956409535,
positions.xlsx,stimuli.xlsx,stimuli/Social1.png,stimuli/Social2.png,stimuli/Nonsocial2.png,stimuli/Nonsocial1.png,,"(0.7, -0.5)",cs_minus_s,,,,,0,0,0,0,,,,,,,,,2,10,42,7,,,,,,,,,,,,,,,,,,,,,3351.924687199993,195,reward,1,0.5071634999476373,0.5071672999765724,3352.438565999968,,,,,,,,50,C,2024-01-15_08h37.21.838,gca_avoidance_task,2022.2.4,143.92340956409535,
positions.xlsx,stimuli.xlsx,stimuli/Social1.png,stimuli/Social2.png,stimuli/Nonsocial2.png,stimuli/Nonsocial1.png,,"(0.7, -0.5)",cs_plus_s,,,,,0,0,0,0,,,,,,,,,2,11,43,3,,,,,,,,,,,,,,,,,,,,,3361.8270674999803,195,none,0,,,3366.833852799842,,,,,,,,50,C,2024-01-15_08h37.21.838,gca_avoidance_task,2022.2.4,143.92340956409535,
positions.xlsx,stimuli.xlsx,stimuli/Social1.png,stimuli/Social2.png,stimuli/Nonsocial2.png,stimuli/Nonsocial1.png,,"(-0.7, -0.5)",cs_plus_ns,,,,,0,0,0,0,,,,,,,,,2,12,44,9,,,,,,,,,,,,,,,,,,,,,3376.111218399834,195,shock,1,0.23617350007407367,0.23617700021713972,3376.354260599939,,,,,,,,50,C,2024-01-15_08h37.21.838,gca_avoidance_task,2022.2.4,143.92340956409535,
positions.xlsx,stimuli.xlsx,stimuli/Social1.png,stimuli/Social2.png,stimuli/Nonsocial2.png,stimuli/Nonsocial1.png,,"(-0.7, 0.5)",cs_minus_s,,,,,0,0,0,0,,,,,,,,,2,13,45,4,,,,,,,,,,,,,,,,,,,,,3385.6664598998614,200,reward,1,0.20864369999617338,0.20864730002358556,3385.8816871999297,,,,,,,,50,C,2024-01-15_08h37.21.838,gca_avoidance_task,2022.2.4,143.92340956409535,
positions.xlsx,stimuli.xlsx,stimuli/Social1.png,stimuli/Social2.png,stimuli/Nonsocial2.png,stimuli/Nonsocial1.png,,"(-0.7, 0.5)",cs_plus_ns,,,,,0,0,0,0,,,,,,,,,2,14,46,8,,,,,,,,,,,,,,,,,,,,,3395.4090595999733,200,none,0,,,3400.4158114998136,,,,,,,,50,C,2024-01-15_08h37.21.838,gca_avoidance_task,2022.2.4,143.92340956409535,
positions.xlsx,stimuli.xlsx,stimuli/Social1.png,stimuli/Social2.png,stimuli/Nonsocial2.png,stimuli/Nonsocial1.png,,"(0.7, 0.5)",cs_plus_s,,,,,0,0,0,0,,,,,,,,,2,15,47,2,,,,,,,,,,,,,,,,,,,,,3410.422333800001,200,none,0,,,3415.429099299945,,,,,,,,50,C,2024-01-15_08h37.21.838,gca_avoidance_task,2022.2.4,143.92340956409535,
positions.xlsx,stimuli.xlsx,stimuli/Social1.png,stimuli/Social2.png,stimuli/Nonsocial2.png,stimuli/Nonsocial1.png,,"(0.7, 0.5)",cs_minus_s,,,,,0,0,0,0,,,,,,,,,3,0,48,6,,,,,,,,,,,,,,,,,,,,,3424.935659999959,205,reward,1,0.9033661999274045,0.9033699000719935,3425.845361299813,,,,,,,,50,C,2024-01-15_08h37.21.838,gca_avoidance_task,2022.2.4,143.92340956409535,
positions.xlsx,stimuli.xlsx,stimuli/Social1.png,stimuli/Social2.png,stimuli/Nonsocial2.png,stimuli/Nonsocial1.png,,"(-0.7, -0.5)",cs_plus_s,,,,,0,0,0,0,,,,,,,,,3,1,49,1,,,,,,,,,,,,,,,,,,,,,3435.1366480998695,205,shock,1,0.1949831999372691,0.19498719996772707,3435.3380109998398,,,,,,,,50,C,2024-01-15_08h37.21.838,gca_avoidance_task,2022.2.4,143.92340956409535,
positions.xlsx,stimuli.xlsx,stimuli/Social1.png,stimuli/Social2.png,stimuli/Nonsocial2.png,stimuli/Nonsocial1.png,,"(-0.7, 0.5)",cs_plus_s,,,,,0,0,0,0,,,,,,,,,3,2,50,0,,,,,,,,,,,,,,,,,,,,,3444.8098885000218,205,shock,1,0.2988138999789953,0.29881760012358427,3445.1154235999566,,,,,,,,50,C,2024-01-15_08h37.21.838,gca_avoidance_task,2022.2.4,143.92340956409535,
positions.xlsx,stimuli.xlsx,stimuli/Social1.png,stimuli/Social2.png,stimuli/Nonsocial2.png,stimuli/Nonsocial1.png,,"(-0.7, 0.5)",cs_minus_ns,,,,,0,0,0,0,,,,,,,,,3,3,51,12,,,,,,,,,,,,,,,,,,,,,3454.496998799965,210,reward,1,0.7497260000091046,0.7497297001536936,3455.253888799809,,,,,,,,50,C,2024-01-15_08h37.21.838,gca_avoidance_task,2022.2.4,143.92340956409535,
positions.xlsx,stimuli.xlsx,stimuli/Social1.png,stimuli/Social2.png,stimuli/Nonsocial2.png,stimuli/Nonsocial1.png,,"(-0.7, 0.5)",cs_minus_s,,,,,0,0,0,0,,,,,,,,,3,4,52,4,,,,,,,,,,,,,,,,,,,,,3464.6979633998126,215,reward,1,0.5280898998025805,0.5280935999471694,3465.2327015998308,,,,,,,,50,C,2024-01-15_08h37.21.838,gca_avoidance_task,2022.2.4,143.92340956409535,
positions.xlsx,stimuli.xlsx,stimuli/Social1.png,stimuli/Social2.png,stimuli/Nonsocial2.png,stimuli/Nonsocial1.png,,"(0.7, -0.5)",cs_minus_s,,,,,0,0,0,0,,,,,,,,,3,5,53,7,,,,,,,,,,,,,,,,,,,,,3474.857305199839,220,reward,1,0.7086999998427927,0.7087035998702049,3475.5725354999304,,,,,,,,50,C,2024-01-15_08h37.21.838,gca_avoidance_task,2022.2.4,143.92340956409535,
positions.xlsx,stimuli.xlsx,stimuli/Social1.png,stimuli/Social2.png,stimuli/Nonsocial2.png,stimuli/Nonsocial1.png,,"(0.7, -0.5)",cs_plus_ns,,,,,0,0,0,0,,,,,,,,,3,6,54,11,,,,,,,,,,,,,,,,,,,,,3484.447189199971,220,none,0,,,3489.4608967998065,,,,,,,,50,C,2024-01-15_08h37.21.838,gca_avoidance_task,2022.2.4,143.92340956409535,
positions.xlsx,stimuli.xlsx,stimuli/Social1.png,stimuli/Social2.png,stimuli/Nonsocial2.png,stimuli/Nonsocial1.png,,"(-0.7, -0.5)",cs_minus_s,,,,,0,0,0,0,,,,,,,,,3,7,55,5,,,,,,,,,,,,,,,,,,,,,3498.4049596998375,225,reward,1,0.5694935999345034,0.5694991999771446,3498.981341699837,,,,,,,,50,C,2024-01-15_08h37.21.838,gca_avoidance_task,2022.2.4,143.92340956409535,
positions.xlsx,stimuli.xlsx,stimuli/Social1.png,stimuli/Social2.png,stimuli/Nonsocial2.png,stimuli/Nonsocial1.png,,"(0.7, 0.5)",cs_minus_ns,,,,,0,0,0,0,,,,,,,,,3,8,56,14,,,,,,,,,,,,,,,,,,,,,3508.7100984000135,230,reward,2,0.6324525999370962,0.639095899881795,3509.432297699852,,,,,,,,50,C,2024-01-15_08h37.21.838,gca_avoidance_task,2022.2.4,143.92340956409535,
positions.xlsx,stimuli.xlsx,stimuli/Social1.png,stimuli/Social2.png,stimuli/Nonsocial2.png,stimuli/Nonsocial1.png,,"(-0.7, -0.5)",cs_plus_ns,,,,,0,0,0,0,,,,,,,,,3,9,57,9,,,,,,,,,,,,,,,,,,,,,3518.994410699932,230,shock,1,0.17375400010496378,0.17375750001519918,3519.1750346999615,,,,,,,,50,C,2024-01-15_08h37.21.838,gca_avoidance_task,2022.2.4,143.92340956409535,
positions.xlsx,stimuli.xlsx,stimuli/Social1.png,stimuli/Social2.png,stimuli/Nonsocial2.png,stimuli/Nonsocial1.png,,"(0.7, -0.5)",cs_plus_s,,,,,0,0,0,0,,,,,,,,,3,10,58,3,,,,,,,,,,,,,,,,,,,,,3528.9593169,230,none,0,,,3533.966063399799,,,,,,,,50,C,2024-01-15_08h37.21.838,gca_avoidance_task,2022.2.4,143.92340956409535,
positions.xlsx,stimuli.xlsx,stimuli/Social1.png,stimuli/Social2.png,stimuli/Nonsocial2.png,stimuli/Nonsocial1.png,,"(0.7, -0.5)",cs_minus_ns,,,,,0,0,0,0,,,,,,,,,3,11,59,15,,,,,,,,,,,,,,,,,,,,,3543.167078899918,235,reward,1,0.7089327999856323,0.7089366998989135,3543.8823312998284,,,,,,,,50,C,2024-01-15_08h37.21.838,gca_avoidance_task,2022.2.4,143.92340956409535,
positions.xlsx,stimuli.xlsx,stimuli/Social1.png,stimuli/Social2.png,stimuli/Nonsocial2.png,stimuli/Nonsocial1.png,,"(0.7, 0.5)",cs_plus_s,,,,,0,0,0,0,,,,,,,,,3,12,60,2,,,,,,,,,,,,,,,,,,,,,3552.6458623998333,235,none,0,,,3557.6526097999886,,,,,,,,50,C,2024-01-15_08h37.21.838,gca_avoidance_task,2022.2.4,143.92340956409535,
positions.xlsx,stimuli.xlsx,stimuli/Social1.png,stimuli/Social2.png,stimuli/Nonsocial2.png,stimuli/Nonsocial1.png,,"(-0.7, 0.5)",cs_plus_ns,,,,,0,0,0,0,,,,,,,,,3,13,61,8,,,,,,,,,,,,,,,,,,,,,3568.0271788998507,235,shock,1,0.6736242999322712,0.6736282000783831,3568.7077479998115,,,,,,,,50,C,2024-01-15_08h37.21.838,gca_avoidance_task,2022.2.4,143.92340956409535,
positions.xlsx,stimuli.xlsx,stimuli/Social1.png,stimuli/Social2.png,stimuli/Nonsocial2.png,stimuli/Nonsocial1.png,,"(-0.7, -0.5)",cs_minus_ns,,,,,0,0,0,0,,,,,,,,,3,14,62,13,,,,,,,,,,,,,,,,,,,,,3577.749019799987,240,reward,1,0.24337189993821084,0.24337579985149205,3577.999000799842,,,,,,,,50,C,2024-01-15_08h37.21.838,gca_avoidance_task,2022.2.4,143.92340956409535,
positions.xlsx,stimuli.xlsx,stimuli/Social1.png,stimuli/Social2.png,stimuli/Nonsocial2.png,stimuli/Nonsocial1.png,,"(0.7, 0.5)",cs_plus_ns,,,,,0,0,0,0,,,,,,,,,3,15,63,10,,,,,,,,,,,,,,,,,,,,,3587.318083500024,240,none,0,,,3592.3248472998384,,,,,,,,50,C,2024-01-15_08h37.21.838,gca_avoidance_task,2022.2.4,143.92340956409535,
positions.xlsx,stimuli.xlsx,stimuli/Social1.png,stimuli/Social2.png,stimuli/Nonsocial2.png,stimuli/Nonsocial1.png,,"(-0.7, -0.5)",cs_minus_s,,,,,0,0,0,0,,,,,,,,,4,0,64,5,,,,,,,,,,,,,,,,,,,,,3601.8938949999865,245,reward,1,0.1953110999893397,0.195314799901098,3602.0952836999204,,,,,,,,50,C,2024-01-15_08h37.21.838,gca_avoidance_task,2022.2.4,143.92340956409535,
positions.xlsx,stimuli.xlsx,stimuli/Social1.png,stimuli/Social2.png,stimuli/Nonsocial2.png,stimuli/Nonsocial1.png,,"(-0.7, -0.5)",cs_plus_s,,,,,0,0,0,0,,,,,,,,,4,1,65,1,,,,,,,,,,,,,,,,,,,,,3611.6643831999972,245,shock,1,0.31972539983689785,0.3197288999799639,3611.9907505998854,,,,,,,,50,C,2024-01-15_08h37.21.838,gca_avoidance_task,2022.2.4,143.92340956409535,
positions.xlsx,stimuli.xlsx,stimuli/Social1.png,stimuli/Social2.png,stimuli/Nonsocial2.png,stimuli/Nonsocial1.png,,"(0.7, -0.5)",cs_minus_ns,,,,,0,0,0,0,,,,,,,,,4,2,66,15,,,,,,,,,,,,,,,,,,,,,3621.2472955998965,250,reward,1,0.6600107001140714,0.6600145001430064,3621.9139027998317,,,,,,,,50,C,2024-01-15_08h37.21.838,gca_avoidance_task,2022.2.4,143.92340956409535,
positions.xlsx,stimuli.xlsx,stimuli/Social1.png,stimuli/Social2.png,stimuli/Nonsocial2.png,stimuli/Nonsocial1.png,,"(-0.7, 0.5)",cs_minus_ns,,,,,0,0,0,0,,,,,,,,,4,3,67,12,,,,,,,,,,,,,,,,,,,,,3632.07326929993,255,reward,1,0.5765101001597941,0.5765134999528527,3632.6565699998755,,,,,,,,50,C,2024-01-15_08h37.21.838,gca_avoidance_task,2022.2.4,143.92340956409535,
positions.xlsx,stimuli.xlsx,stimuli/Social1.png,stimuli/Social2.png,stimuli/Nonsocial2.png,stimuli/Nonsocial1.png,,"(-0.7, -0.5)",cs_minus_ns,,,,,0,0,0,0,,,,,,,,,4,4,68,13,,,,,,,,,,,,,,,,,,,,,3642.8158944000024,260,reward,1,0.35468550003133714,0.3546895000617951,3643.1769705999177,,,,,,,,50,C,2024-01-15_08h37.21.838,gca_avoidance_task,2022.2.4,143.92340956409535,
positions.xlsx,stimuli.xlsx,stimuli/Social1.png,stimuli/Social2.png,stimuli/Nonsocial2.png,stimuli/Nonsocial1.png,,"(0.7, -0.5)",cs_plus_s,,,,,0,0,0,0,,,,,,,,,4,5,69,3,,,,,,,,,,,,,,,,,,,,,3652.4057836998254,260,none,0,,,3657.412583399797,,,,,,,,50,C,2024-01-15_08h37.21.838,gca_avoidance_task,2022.2.4,143.92340956409535,
positions.xlsx,stimuli.xlsx,stimuli/Social1.png,stimuli/Social2.png,stimuli/Nonsocial2.png,stimuli/Nonsocial1.png,,"(0.7, -0.5)",cs_plus_ns,,,,,0,0,0,0,,,,,,,,,4,6,70,11,,,,,,,,,,,,,,,,,,,,,3667.3149099999573,260,none,0,,,3672.3216503998265,,,,,,,,50,C,2024-01-15_08h37.21.838,gca_avoidance_task,2022.2.4,143.92340956409535,
positions.xlsx,stimuli.xlsx,stimuli/Social1.png,stimuli/Social2.png,stimuli/Nonsocial2.png,stimuli/Nonsocial1.png,,"(0.7, 0.5)",cs_minus_s,,,,,0,0,0,0,,,,,,,,,4,7,71,6,,,,,,,,,,,,,,,,,,,,,3681.765717299888,265,reward,1,0.5416112998500466,0.5416150998789817,3682.3143562998157,,,,,,,,50,C,2024-01-15_08h37.21.838,gca_avoidance_task,2022.2.4,143.92340956409535,
positions.xlsx,stimuli.xlsx,stimuli/Social1.png,stimuli/Social2.png,stimuli/Nonsocial2.png,stimuli/Nonsocial1.png,,"(-0.7, 0.5)",cs_plus_ns,,,,,0,0,0,0,,,,,,,,,4,8,72,8,,,,,,,,,,,,,,,,,,,,,3692.5917177000083,265,shock,1,0.3197725999634713,0.3197762998752296,3692.918082299875,,,,,,,,50,C,2024-01-15_08h37.21.838,gca_avoidance_task,2022.2.4,143.92340956409535,
positions.xlsx,stimuli.xlsx,stimuli/Social1.png,stimuli/Social2.png,stimuli/Nonsocial2.png,stimuli/Nonsocial1.png,,"(0.7, 0.5)",cs_plus_s,,,,,0,0,0,0,,,,,,,,,4,9,73,2,,,,,,,,,,,,,,,,,,,,,3702.5843177998904,265,none,0,,,3707.591115299845,,,,,,,,50,C,2024-01-15_08h37.21.838,gca_avoidance_task,2022.2.4,143.92340956409535,
positions.xlsx,stimuli.xlsx,stimuli/Social1.png,stimuli/Social2.png,stimuli/Nonsocial2.png,stimuli/Nonsocial1.png,,"(-0.7, -0.5)",cs_plus_ns,,,,,0,0,0,0,,,,,,,,,4,10,74,9,,,,,,,,,,,,,,,,,,,,,3717.4795607000124,265,shock,1,0.38925569993443787,0.3892591998446733,3717.8754233999643,,,,,,,,50,C,2024-01-15_08h37.21.838,gca_avoidance_task,2022.2.4,143.92340956409535,
positions.xlsx,stimuli.xlsx,stimuli/Social1.png,stimuli/Social2.png,stimuli/Nonsocial2.png,stimuli/Nonsocial1.png,,"(-0.7, 0.5)",cs_minus_s,,,,,0,0,0,0,,,,,,,,,4,11,75,4,,,,,,,,,,,,,,,,,,,,,3728.2013874999247,270,reward,1,0.5068858000449836,0.5068896000739187,3728.715254199924,,,,,,,,50,C,2024-01-15_08h37.21.838,gca_avoidance_task,2022.2.4,143.92340956409535,
positions.xlsx,stimuli.xlsx,stimuli/Social1.png,stimuli/Social2.png,stimuli/Nonsocial2.png,stimuli/Nonsocial1.png,,"(-0.7, 0.5)",cs_plus_s,,,,,0,0,0,0,,,,,,,,,4,12,76,0,,,,,,,,,,,,,,,,,,,,,3738.1454337998293,270,shock,1,0.32643630006350577,0.3264399999752641,3738.478728899965,,,,,,,,50,C,2024-01-15_08h37.21.838,gca_avoidance_task,2022.2.4,143.92340956409535,
positions.xlsx,stimuli.xlsx,stimuli/Social1.png,stimuli/Social2.png,stimuli/Nonsocial2.png,stimuli/Nonsocial1.png,,"(0.7, 0.5)",cs_plus_ns,,,,,0,0,0,0,,,,,,,,,4,13,77,10,,,,,,,,,,,,,,,,,,,,,3748.110309300013,270,none,0,,,3753.117085199803,,,,,,,,50,C,2024-01-15_08h37.21.838,gca_avoidance_task,2022.2.4,143.92340956409535,
positions.xlsx,stimuli.xlsx,stimuli/Social1.png,stimuli/Social2.png,stimuli/Nonsocial2.png,stimuli/Nonsocial1.png,,"(0.7, -0.5)",cs_minus_s,,,,,0,0,0,0,,,,,,,,,4,14,78,7,,,,,,,,,,,,,,,,,,,,,3762.70000740001,275,reward,1,0.6191494998056442,0.6191534998361021,3763.3250049999915,,,,,,,,50,C,2024-01-15_08h37.21.838,gca_avoidance_task,2022.2.4,143.92340956409535,
positions.xlsx,stimuli.xlsx,stimuli/Social1.png,stimuli/Social2.png,stimuli/Nonsocial2.png,stimuli/Nonsocial1.png,,"(0.7, 0.5)",cs_minus_ns,,,,,0,0,0,0,,,,,,,,,4,15,79,14,,,,,,,,,,,,,,,,,,,,,3772.6857419000007,280,reward,1,0.6111989999189973,0.6112026998307556,3773.3037601998076,,,,,,,,50,C,2024-01-15_08h37.21.838,gca_avoidance_task,2022.2.4,143.92340956409535,
positions.xlsx,stimuli.xlsx,stimuli/Social1.png,stimuli/Social2.png,stimuli/Nonsocial2.png,stimuli/Nonsocial1.png,cs_plus_ns,,,,,,,0,0,0,0,,,,,,,,,,,,,0,0,0,1,,,,,,,,,,,,,3791.8446986998897,4.0,2.808716000057757,,,,,,,,,5.0,9.68052910012193,,,,,,50,C,2024-01-15_08h37.21.838,gca_avoidance_task,2022.2.4,143.92340956409535,
positions.xlsx,stimuli.xlsx,stimuli/Social1.png,stimuli/Social2.png,stimuli/Nonsocial2.png,stimuli/Nonsocial1.png,cs_minus_ns,,,,,,,0,0,0,0,,,,,,,,,,,,,0,1,1,3,,,,,,,,,,,,,3795.934793099994,8.0,2.5768981999717653,,,,,,,,,,,,,,,,50,C,2024-01-15_08h37.21.838,gca_avoidance_task,2022.2.4,143.92340956409535,
positions.xlsx,stimuli.xlsx,stimuli/Social1.png,stimuli/Social2.png,stimuli/Nonsocial2.png,stimuli/Nonsocial1.png,cs_minus_s,,,,,,,0,0,0,0,,,,,,,,,,,,,0,2,2,2,,,,,,,,,,,,,3799.6291306999046,8.0,1.2228929998818785,,,,,,,,,,,,,,,,50,C,2024-01-15_08h37.21.838,gca_avoidance_task,2022.2.4,143.92340956409535,
positions.xlsx,stimuli.xlsx,stimuli/Social1.png,stimuli/Social2.png,stimuli/Nonsocial2.png,stimuli/Nonsocial1.png,cs_plus_s,,,,,,,0,0,0,0,,,,,,,,,,,,,0,3,3,0,,,,,,,,,,,,,3801.6915217998903,4.0,2.8415573998354375,,,,,,,,,,,,,,,,50,C,2024-01-15_08h37.21.838,gca_avoidance_task,2022.2.4,143.92340956409535,
positions.xlsx,stimuli.xlsx,stimuli/Social1.png,stimuli/Social2.png,stimuli/Nonsocial2.png,stimuli/Nonsocial1.png,cs_plus_ns,,,,,,,0,0,0,0,,,,,,,,,,,,,,,,,0,0,0,1,,,,,,,,,,,,,,,,,,,,,,3805.4622020998504,3809.253744599875,1,0.021614300087094307,9.999712000135332,50,C,2024-01-15_08h37.21.838,gca_avoidance_task,2022.2.4,143.92340956409535,
positions.xlsx,stimuli.xlsx,stimuli/Social1.png,stimuli/Social2.png,stimuli/Nonsocial2.png,stimuli/Nonsocial1.png,cs_plus_s,,,,,,,0,0,0,0,,,,,,,,,,,,,,,,,0,1,1,0,,,,,,,,,,,,,,,,,,,,,,,3823.7809345999267,4,0.013550900155678391,0.5351341001223773,50,C,2024-01-15_08h37.21.838,gca_avoidance_task,2022.2.4,143.92340956409535,
positions.xlsx,stimuli.xlsx,stimuli/Social1.png,stimuli/Social2.png,stimuli/Nonsocial2.png,stimuli/Nonsocial1.png,cs_minus_s,,,,,,,0,0,0,0,,,,,,,,,,,,,,,,,0,2,2,2,,,,,,,,,,,,,,,,,,,,,,,3838.495630499907,2,0.013488800032064319,4.229349199915305,50,C,2024-01-15_08h37.21.838,gca_avoidance_task,2022.2.4,143.92340956409535,
positions.xlsx,stimuli.xlsx,stimuli/Social1.png,stimuli/Social2.png,stimuli/Nonsocial2.png,stimuli/Nonsocial1.png,cs_minus_ns,,,,,,,0,0,0,0,,,,,,,,,,,,,,,,,0,3,3,3,,,,,,,,,,,,,,,,,,,,,,,3853.758911299985,2,0.014095399994403124,8.27091720001772,50,C,2024-01-15_08h37.21.838,gca_avoidance_task,2022.2.4,143.92340956409535,
positions.xlsx,stimuli.xlsx,stimuli/Social1.png,stimuli/Social2.png,stimuli/Nonsocial2.png,stimuli/Nonsocial1.png,cs_minus_ns,,,,,,,0,0,0,0,,,,,,,,,,,,,,,,,1,0,4,3,,,,,,,,,,,,,,,,,,,,,,,3868.3208431999665,7,0.014314699918031693,0.5420967000536621,50,C,2024-01-15_08h37.21.838,gca_avoidance_task,2022.2.4,143.92340956409535,
positions.xlsx,stimuli.xlsx,stimuli/Social1.png,stimuli/Social2.png,stimuli/Nonsocial2.png,stimuli/Nonsocial1.png,cs_plus_s,,,,,,,0,0,0,0,,,,,,,,,,,,,,,,,1,1,5,0,,,,,,,,,,,,,,,,,,,,,,,3883.827184099937,2,0.013509699841961265,9.625037599820644,50,C,2024-01-15_08h37.21.838,gca_avoidance_task,2022.2.4,143.92340956409535,
positions.xlsx,stimuli.xlsx,stimuli/Social1.png,stimuli/Social2.png,stimuli/Nonsocial2.png,stimuli/Nonsocial1.png,cs_minus_s,,,,,,,0,0,0,0,,,,,,,,,,,,,,,,,1,2,6,2,,,,,,,,,,,,,,,,,,,,,,,3899.2432285000104,8,0.10469359997659922,0.5280001000501215,50,C,2024-01-15_08h37.21.838,gca_avoidance_task,2022.2.4,143.92340956409535,
positions.xlsx,stimuli.xlsx,stimuli/Social1.png,stimuli/Social2.png,stimuli/Nonsocial2.png,stimuli/Nonsocial1.png,cs_plus_ns,,,,,,,0,0,0,0,,,,,,,,,,,,,,,,,1,3,7,1,,,,,,,,,,,,,,,,,,,,,,,3913.7773650998715,3,0.014065699884667993,5.8126249997876585,50,C,2024-01-15_08h37.21.838,gca_avoidance_task,2022.2.4,143.92340956409535,
positions.xlsx,stimuli.xlsx,stimuli/Social1.png,stimuli/Social2.png,stimuli/Nonsocial2.png,stimuli/Nonsocial1.png,cs_minus_ns,,,,,,,0,0,0,0,,,,,,,,,,,,,,,,,2,0,8,3,,,,,,,,,,,,,,,,,,,,,,,3928.9642619998194,4,0.014951300108805299,6.47916470002383,50,C,2024-01-15_08h37.21.838,gca_avoidance_task,2022.2.4,143.92340956409535,
positions.xlsx,stimuli.xlsx,stimuli/Social1.png,stimuli/Social2.png,stimuli/Nonsocial2.png,stimuli/Nonsocial1.png,cs_plus_s,,,,,,,0,0,0,0,,,,,,,,,,,,,,,,,2,1,9,0,,,,,,,,,,,,,,,,,,,,,,,3943.7623091998976,3,0.014118500053882599,2.1114527001045644,50,C,2024-01-15_08h37.21.838,gca_avoidance_task,2022.2.4,143.92340956409535,
positions.xlsx,stimuli.xlsx,stimuli/Social1.png,stimuli/Social2.png,stimuli/Nonsocial2.png,stimuli/Nonsocial1.png,cs_plus_ns,,,,,,,0,0,0,0,,,,,,,,,,,,,,,,,2,2,10,1,,,,,,,,,,,,,,,,,,,,,,,3959.1853206998203,6,0.015175400068983436,4.389008700149134,50,C,2024-01-15_08h37.21.838,gca_avoidance_task,2022.2.4,143.92340956409535,
positions.xlsx,stimuli.xlsx,stimuli/Social1.png,stimuli/Social2.png,stimuli/Nonsocial2.png,stimuli/Nonsocial1.png,cs_minus_s,,,,,,,0,0,0,0,,,,,,,,,,,,,,,,,2,3,11,2,,,,,,,,,,,,,,,,,,,,,,,3974.163864800008,4,0.013484600000083447,7.125003200024366,50,C,2024-01-15_08h37.21.838,gca_avoidance_task,2022.2.4,143.92340956409535,
positions.xlsx,stimuli.xlsx,stimuli/Social1.png,stimuli/Social2.png,stimuli/Nonsocial2.png,stimuli/Nonsocial1.png,cs_minus_ns,,,,,,,0,0,0,0,,,,,,,,,,,,,,,,,3,0,12,3,,,,,,,,,,,,,,,,,,,,,,,3989.2118745998014,8,0.014236800139769912,1.5906352000311017,50,C,2024-01-15_08h37.21.838,gca_avoidance_task,2022.2.4,143.92340956409535,
positions.xlsx,stimuli.xlsx,stimuli/Social1.png,stimuli/Social2.png,stimuli/Nonsocial2.png,stimuli/Nonsocial1.png,cs_minus_s,,,,,,,0,0,0,0,,,,,,,,,,,,,,,,,3,1,13,2,,,,,,,,,,,,,,,,,,,,,,,4004.6695938999765,6,0.013411999912932515,0.1324151000007987,50,C,2024-01-15_08h37.21.838,gca_avoidance_task,2022.2.4,143.92340956409535,
positions.xlsx,stimuli.xlsx,stimuli/Social1.png,stimuli/Social2.png,stimuli/Nonsocial2.png,stimuli/Nonsocial1.png,cs_plus_s,,,,,,,0,0,0,0,,,,,,,,,,,,,,,,,3,2,14,0,,,,,,,,,,,,,,,,,,,,,,,4019.1968152998015,2,0.01320069981738925,8.791942699812353,50,C,2024-01-15_08h37.21.838,gca_avoidance_task,2022.2.4,143.92340956409535,
positions.xlsx,stimuli.xlsx,stimuli/Social1.png,stimuli/Social2.png,stimuli/Nonsocial2.png,stimuli/Nonsocial1.png,cs_plus_ns,,,,,,,0,0,0,0,,,,,,,,,,,,,,,,,3,3,15,1,,,,,,,,,,,,,,,,,,,,,,,4034.5295013999566,3,0.014721800107508898,0.6044586999341846,50,C,2024-01-15_08h37.21.838,gca_avoidance_task,2022.2.4,143.92340956409535,
positions.xlsx,stimuli.xlsx,stimuli/Social1.png,stimuli/Social2.png,stimuli/Nonsocial2.png,stimuli/Nonsocial1.png,cs_minus_ns,,,,,,,0,0,0,0,,,,,,,,,,,,,,,,,4,0,16,3,,,,,,,,,,,,,,,,,,,,,,,4049.4386824998073,2,0.014035400003194809,4.2431723000481725,50,C,2024-01-15_08h37.21.838,gca_avoidance_task,2022.2.4,143.92340956409535,
positions.xlsx,stimuli.xlsx,stimuli/Social1.png,stimuli/Social2.png,stimuli/Nonsocial2.png,stimuli/Nonsocial1.png,cs_plus_ns,,,,,,,0,0,0,0,,,,,,,,,,,,,,,,,4,1,17,1,,,,,,,,,,,,,,,,,,,,,,,4064.2297588998917,6,0.04895509989000857,1.2226134999655187,50,C,2024-01-15_08h37.21.838,gca_avoidance_task,2022.2.4,143.92340956409535,
positions.xlsx,stimuli.xlsx,stimuli/Social1.png,stimuli/Social2.png,stimuli/Nonsocial2.png,stimuli/Nonsocial1.png,cs_minus_s,,,,,,,0,0,0,0,,,,,,,,,,,,,,,,,4,2,18,2,,,,,,,,,,,,,,,,,,,,,,,4079.5624733997975,4,0.01499970001168549,3.7016630999278277,50,C,2024-01-15_08h37.21.838,gca_avoidance_task,2022.2.4,143.92340956409535,
positions.xlsx,stimuli.xlsx,stimuli/Social1.png,stimuli/Social2.png,stimuli/Nonsocial2.png,stimuli/Nonsocial1.png,cs_plus_s,,,,,,,0,0,0,0,,,,,,,,,,,,,,,,,4,3,19,0,,,,,,,,,,,,,,,,,,,,,,,4094.8813026999123,3,0.2155718000140041,1.1113807000219822,50,C,2024-01-15_08h37.21.838,gca_avoidance_task,2022.2.4,143.92340956409535,
positions.xlsx,stimuli.xlsx,stimuli/Social1.png,stimuli/Social2.png,stimuli/Nonsocial2.png,stimuli/Nonsocial1.png,cs_minus_s,,,,,,,0,0,0,0,,,,,,,,,,,,,,,,,5,0,20,2,,,,,,,,,,,,,,,,,,,,,,,4109.846046899911,3,0.014394900063052773,1.0351557999383658,50,C,2024-01-15_08h37.21.838,gca_avoidance_task,2022.2.4,143.92340956409535,
positions.xlsx,stimuli.xlsx,stimuli/Social1.png,stimuli/Social2.png,stimuli/Nonsocial2.png,stimuli/Nonsocial1.png,cs_plus_ns,,,,,,,0,0,0,0,,,,,,,,,,,,,,,,,5,1,21,1,,,,,,,,,,,,,,,,,,,,,,,4125.185663799988,5,0.013894699979573488,4.076697899959981,50,C,2024-01-15_08h37.21.838,gca_avoidance_task,2022.2.4,143.92340956409535,
positions.xlsx,stimuli.xlsx,stimuli/Social1.png,stimuli/Social2.png,stimuli/Nonsocial2.png,stimuli/Nonsocial1.png,cs_minus_ns,,,,,,,0,0,0,0,,,,,,,,,,,,,,,,,5,2,22,3,,,,,,,,,,,,,,,,,,,,,,,4139.733712499961,8,0.014073200058192015,0.5210943000856787,50,C,2024-01-15_08h37.21.838,gca_avoidance_task,2022.2.4,143.92340956409535,
positions.xlsx,stimuli.xlsx,stimuli/Social1.png,stimuli/Social2.png,stimuli/Nonsocial2.png,stimuli/Nonsocial1.png,cs_plus_s,,,,,,,0,0,0,0,,,,,,,,,,,,,,,,,5,3,23,0,,,,,,,,,,,,,,,,,,,,,,,4154.441448899917,3,0.521267999894917,1.2781153998803347,50,C,2024-01-15_08h37.21.838,gca_avoidance_task,2022.2.4,143.92340956409535,
positions.xlsx,stimuli.xlsx,stimuli/Social1.png,stimuli/Social2.png,stimuli/Nonsocial2.png,stimuli/Nonsocial1.png,cs_minus_s,,,,,,,0,0,0,0,,,,,,,,,,,,,,,,,6,0,24,2,,,,,,,,,,,,,,,,,,,,,,,4169.086718499893,6,0.014100200030952692,0.5489999998826534,50,C,2024-01-15_08h37.21.838,gca_avoidance_task,2022.2.4,143.92340956409535,
positions.xlsx,stimuli.xlsx,stimuli/Social1.png,stimuli/Social2.png,stimuli/Nonsocial2.png,stimuli/Nonsocial1.png,cs_minus_ns,,,,,,,0,0,0,0,,,,,,,,,,,,,,,,,6,1,25,3,,,,,,,,,,,,,,,,,,,,,,,4184.461095699808,6,0.014082999899983406,1.46561299986206,50,C,2024-01-15_08h37.21.838,gca_avoidance_task,2022.2.4,143.92340956409535,
positions.xlsx,stimuli.xlsx,stimuli/Social1.png,stimuli/Social2.png,stimuli/Nonsocial2.png,stimuli/Nonsocial1.png,cs_plus_ns,,,,,,,0,0,0,0,,,,,,,,,,,,,,,,,6,2,26,1,,,,,,,,,,,,,,,,,,,,,,,4199.759093199857,6,0.15997419995255768,1.097835100023076,50,C,2024-01-15_08h37.21.838,gca_avoidance_task,2022.2.4,143.92340956409535,
positions.xlsx,stimuli.xlsx,stimuli/Social1.png,stimuli/Social2.png,stimuli/Nonsocial2.png,stimuli/Nonsocial1.png,cs_plus_s,,,,,,,0,0,0,0,,,,,,,,,,,,,,,,,6,3,27,0,,,,,,,,,,,,,,,,,,,,,,,4215.022389499936,6,0.2852143000345677,0.9239254998974502,50,C,2024-01-15_08h37.21.838,gca_avoidance_task,2022.2.4,143.92340956409535,
positions.xlsx,stimuli.xlsx,stimuli/Social1.png,stimuli/Social2.png,stimuli/Nonsocial2.png,stimuli/Nonsocial1.png,cs_plus_s,,,,,,,0,0,0,0,,,,,,,,,,,,,,,,,7,0,28,0,,,,,,,,,,,,,,,,,,,,,,,4229.5842704998795,1,0.014875999884679914,9.999948600074276,50,C,2024-01-15_08h37.21.838,gca_avoidance_task,2022.2.4,143.92340956409535,
positions.xlsx,stimuli.xlsx,stimuli/Social1.png,stimuli/Social2.png,stimuli/Nonsocial2.png,stimuli/Nonsocial1.png,cs_minus_s,,,,,,,0,0,0,0,,,,,,,,,,,,,,,,,7,1,29,2,,,,,,,,,,,,,,,,,,,,,,,4244.910124799935,3,0.013453900115564466,1.2710766000673175,50,C,2024-01-15_08h37.21.838,gca_avoidance_task,2022.2.4,143.92340956409535,
positions.xlsx,stimuli.xlsx,stimuli/Social1.png,stimuli/Social2.png,stimuli/Nonsocial2.png,stimuli/Nonsocial1.png,cs_plus_ns,,,,,,,0,0,0,0,,,,,,,,,,,,,,,,,7,2,30,1,,,,,,,,,,,,,,,,,,,,,,,4260.367814099882,3,0.014199299970641732,1.660181999905035,50,C,2024-01-15_08h37.21.838,gca_avoidance_task,2022.2.4,143.92340956409535,
positions.xlsx,stimuli.xlsx,stimuli/Social1.png,stimuli/Social2.png,stimuli/Nonsocial2.png,stimuli/Nonsocial1.png,cs_minus_ns,,,,,,,0,0,0,0,,,,,,,,,,,,,,,,,7,3,31,3,,,,,,,,,,,,,,,,,,,,,,,4275.013072300004,4,0.014135699952021241,1.0420673999469727,50,C,2024-01-15_08h37.21.838,gca_avoidance_task,2022.2.4,143.92340956409535,
positions.xlsx,stimuli.xlsx,stimuli/Social1.png,stimuli/Social2.png,stimuli/Nonsocial2.png,stimuli/Nonsocial1.png,cs_plus_ns,,,,,,,0,0,0,0,,,,,,,,,,,,,,,,,8,0,32,1,,,,,,,,,,,,,,,,,,,,,,,4290.38054539985,3,0.013980000047013164,3.6252657000441104,50,C,2024-01-15_08h37.21.838,gca_avoidance_task,2022.2.4,143.92340956409535,
positions.xlsx,stimuli.xlsx,stimuli/Social1.png,stimuli/Social2.png,stimuli/Nonsocial2.png,stimuli/Nonsocial1.png,cs_minus_s,,,,,,,0,0,0,0,,,,,,,,,,,,,,,,,8,1,33,2,,,,,,,,,,,,,,,,,,,,,,,4305.0118821000215,3,0.013951200060546398,0.576736600138247,50,C,2024-01-15_08h37.21.838,gca_avoidance_task,2022.2.4,143.92340956409535,
positions.xlsx,stimuli.xlsx,stimuli/Social1.png,stimuli/Social2.png,stimuli/Nonsocial2.png,stimuli/Nonsocial1.png,cs_plus_s,,,,,,,0,0,0,0,,,,,,,,,,,,,,,,,8,2,34,0,,,,,,,,,,,,,,,,,,,,,,,4320.115450399928,1,0.013487299904227257,10.000075599877164,50,C,2024-01-15_08h37.21.838,gca_avoidance_task,2022.2.4,143.92340956409535,
positions.xlsx,stimuli.xlsx,stimuli/Social1.png,stimuli/Social2.png,stimuli/Nonsocial2.png,stimuli/Nonsocial1.png,cs_minus_ns,,,,,,,0,0,0,0,,,,,,,,,,,,,,,,,8,3,35,3,,,,,,,,,,,,,,,,,,,,,,,4335.212053899886,3,1.6815647999756038,5.041815900010988,50,C,2024-01-15_08h37.21.838,gca_avoidance_task,2022.2.4,143.92340956409535,
positions.xlsx,stimuli.xlsx,stimuli/Social1.png,stimuli/Social2.png,stimuli/Nonsocial2.png,stimuli/Nonsocial1.png,cs_plus_s,,,,,,,0,0,0,0,,,,,,,,,,,,,,,,,9,0,36,0,,,,,,,,,,,,,,,,,,,,,,,4350.544782799901,16,0.01348890014924109,2.0975659999530762,50,C,2024-01-15_08h37.21.838,gca_avoidance_task,2022.2.4,143.92340956409535,
positions.xlsx,stimuli.xlsx,stimuli/Social1.png,stimuli/Social2.png,stimuli/Nonsocial2.png,stimuli/Nonsocial1.png,cs_minus_s,,,,,,,0,0,0,0,,,,,,,,,,,,,,,,,9,1,37,2,,,,,,,,,,,,,,,,,,,,,,,4365.467838799814,7,0.013695099856704473,1.0280772000551224,50,C,2024-01-15_08h37.21.838,gca_avoidance_task,2022.2.4,143.92340956409535,
positions.xlsx,stimuli.xlsx,stimuli/Social1.png,stimuli/Social2.png,stimuli/Nonsocial2.png,stimuli/Nonsocial1.png,cs_plus_ns,,,,,,,0,0,0,0,,,,,,,,,,,,,,,,,9,2,38,1,,,,,,,,,,,,,,,,,,,,,,,4380.189449799946,4,3.7365054998081177,4.048802099889144,50,C,2024-01-15_08h37.21.838,gca_avoidance_task,2022.2.4,143.92340956409535,
positions.xlsx,stimuli.xlsx,stimuli/Social1.png,stimuli/Social2.png,stimuli/Nonsocial2.png,stimuli/Nonsocial1.png,cs_minus_ns,,,,,,,0,0,0,0,,,,,,,,,,,,,,,,,9,3,39,3,,,,,,,,,,,,,,,,,,,,,,,4394.931943499949,2,0.015143200056627393,3.514140000101179,50,C,2024-01-15_08h37.21.838,gca_avoidance_task,2022.2.4,143.92340956409535,
positions.xlsx,stimuli.xlsx,stimuli/Social1.png,stimuli/Social2.png,stimuli/Nonsocial2.png,stimuli/Nonsocial1.png,cs_minus_s,,,,,,,0,0,0,0,,,,,,,,,,,,,,,,,,,,,0,0,0,2,,,,,4408.924468999961,8.0,5.53845510003157,,,,,,,,,,,,,,,,50,C,2024-01-15_08h37.21.838,gca_avoidance_task,2022.2.4,143.92340956409535,
positions.xlsx,stimuli.xlsx,stimuli/Social1.png,stimuli/Social2.png,stimuli/Nonsocial2.png,stimuli/Nonsocial1.png,cs_minus_ns,,,,,,,0,0,0,0,,,,,,,,,,,,,,,,,,,,,0,1,1,3,,,,,4416.264411999844,8.0,1.805474700173363,,,,,,,,,,,,,,,,50,C,2024-01-15_08h37.21.838,gca_avoidance_task,2022.2.4,143.92340956409535,
positions.xlsx,stimuli.xlsx,stimuli/Social1.png,stimuli/Social2.png,stimuli/Nonsocial2.png,stimuli/Nonsocial1.png,cs_plus_ns,,,,,,,0,0,0,0,,,,,,,,,,,,,,,,,,,,,0,2,2,1,,,,,4418.951832699822,6.0,2.3966543001588434,,,,,,,,,,,,,,,,50,C,2024-01-15_08h37.21.838,gca_avoidance_task,2022.2.4,143.92340956409535,
positions.xlsx,stimuli.xlsx,stimuli/Social1.png,stimuli/Social2.png,stimuli/Nonsocial2.png,stimuli/Nonsocial1.png,cs_plus_s,,,,,,,0,0,0,0,,,,,,,,,,,,,,,,,,,,,0,3,3,0,,,,,4422.687774499878,6.0,1.6748422000091523,,,,,,,,,,,,,,,,50,C,2024-01-15_08h37.21.838,gca_avoidance_task,2022.2.4,143.92340956409535,
