posFile,stimFile,cs_plus_s,cs_minus_s,cs_plus_ns,cs_minus_ns,stimtype,position,trialtype,trials_threshold.thisRepN,trials_threshold.thisTrialN,trials_threshold.thisN,trials_threshold.thisIndex,blocks.thisRepN,blocks.thisTrialN,blocks.thisN,blocks.thisIndex,ratingtrials1.thisRepN,ratingtrials1.thisTrialN,ratingtrials1.thisN,ratingtrials1.thisIndex,learning_trials.thisRepN,learning_trials.thisTrialN,learning_trials.thisN,learning_trials.thisIndex,trials.thisRepN,trials.thisTrialN,trials.thisN,trials.thisIndex,ratingtrials2.thisRepN,ratingtrials2.thisTrialN,ratingtrials2.thisN,ratingtrials2.thisIndex,testtrials.thisRepN,testtrials.thisTrialN,testtrials.thisN,testtrials.thisIndex,ratingtrials3.thisRepN,ratingtrials3.thisTrialN,ratingtrials3.thisN,ratingtrials3.thisIndex,textStart.started,sliderPainT.response,sliderPainT.rt,textStartExp.started,imageRating.started,sliderStim.response,sliderStim.rt,textStartTask.started,image.started,score,outcome,roi.numLooks,roi.timesOn,roi.timesOff,imageFeedback.started,sliderPain.response,sliderPain.rt,textTestInstr.started,imageTest.started,roiTest.numLooks,roiTest.timesOn,roiTest.timesOff,participant,group,date,expName,psychopyVersion,frameRate,
,,,,,,,,,0,0,0,0,,,,,,,,,,,,,,,,,,,,,,,,,,,,,11.743188000051305,None,None,,,,,,,,,,,,,,,,,,,,36,B,2023-12-18_10h28.06.373,gca_avoidance_task,2022.2.4,143.8884117204982,
,,,,,,,,,1,0,1,0,,,,,,,,,,,,,,,,,,,,,,,,,,,,,,0.0,3.720513799926266,,,,,,,,,,,,,,,,,,,,36,B,2023-12-18_10h28.06.373,gca_avoidance_task,2022.2.4,143.8884117204982,
,,,,,,,,,2,0,2,0,,,,,,,,,,,,,,,,,,,,,,,,,,,,,,0.0,1.2892142999917269,,,,,,,,,,,,,,,,,,,,36,B,2023-12-18_10h28.06.373,gca_avoidance_task,2022.2.4,143.8884117204982,
,,,,,,,,,3,0,3,0,,,,,,,,,,,,,,,,,,,,,,,,,,,,,,1.0,1.0540972999297082,,,,,,,,,,,,,,,,,,,,36,B,2023-12-18_10h28.06.373,gca_avoidance_task,2022.2.4,143.8884117204982,
,,,,,,,,,4,0,4,0,,,,,,,,,,,,,,,,,,,,,,,,,,,,,,2.0,2.171743300044909,,,,,,,,,,,,,,,,,,,,36,B,2023-12-18_10h28.06.373,gca_avoidance_task,2022.2.4,143.8884117204982,
,,,,,,,,,5,0,5,0,,,,,,,,,,,,,,,,,,,,,,,,,,,,,,3.0,1.2729024000000209,,,,,,,,,,,,,,,,,,,,36,B,2023-12-18_10h28.06.373,gca_avoidance_task,2022.2.4,143.8884117204982,
,,,,,,,,,6,0,6,0,,,,,,,,,,,,,,,,,,,,,,,,,,,,,,4.0,7.938637099927291,,,,,,,,,,,,,,,,,,,,36,B,2023-12-18_10h28.06.373,gca_avoidance_task,2022.2.4,143.8884117204982,
,,,,,,,,,7,0,7,0,,,,,,,,,,,,,,,,,,,,,,,,,,,,,,4.0,1.4210410000523552,,,,,,,,,,,,,,,,,,,,36,B,2023-12-18_10h28.06.373,gca_avoidance_task,2022.2.4,143.8884117204982,
,,,,,,,,,8,0,8,0,,,,,,,,,,,,,,,,,,,,,,,,,,,,,,5.0,1.8184752999804914,,,,,,,,,,,,,,,,,,,,36,B,2023-12-18_10h28.06.373,gca_avoidance_task,2022.2.4,143.8884117204982,
,,,,,,,,,9,0,9,0,,,,,,,,,,,,,,,,,,,,,,,,,,,,,,5.0,1.5935796999838203,,,,,,,,,,,,,,,,,,,,36,B,2023-12-18_10h28.06.373,gca_avoidance_task,2022.2.4,143.8884117204982,
,,,,,,,,,10,0,10,0,,,,,,,,,,,,,,,,,,,,,,,,,,,,,,7.0,0.8146443000296131,,,,,,,,,,,,,,,,,,,,36,B,2023-12-18_10h28.06.373,gca_avoidance_task,2022.2.4,143.8884117204982,
,,,,,,,,,11,0,11,0,,,,,,,,,,,,,,,,,,,,,,,,,,,,,,7.0,1.9926271999720484,,,,,,,,,,,,,,,,,,,,36,B,2023-12-18_10h28.06.373,gca_avoidance_task,2022.2.4,143.8884117204982,
,,,,,,,,,12,0,12,0,,,,,,,,,,,,,,,,,,,,,,,,,,,,,,6.0,0.9432134999660775,,,,,,,,,,,,,,,,,,,,36,B,2023-12-18_10h28.06.373,gca_avoidance_task,2022.2.4,143.8884117204982,
,,,,,,,,,13,0,13,0,,,,,,,,,,,,,,,,,,,,,,,,,,,,,,6.0,2.1153670999919996,,,,,,,,,,,,,,,,,,,,36,B,2023-12-18_10h28.06.373,gca_avoidance_task,2022.2.4,143.8884117204982,
,,,,,,,,,14,0,14,0,,,,,,,,,,,,,,,,,,,,,,,,,,,,,,5.0,0.46687830006703734,,,,,,,,,,,,,,,,,,,,36,B,2023-12-18_10h28.06.373,gca_avoidance_task,2022.2.4,143.8884117204982,
,,,,,,,,,15,0,15,0,,,,,,,,,,,,,,,,,,,,,,,,,,,,,,6.0,1.1379104000516236,,,,,,,,,,,,,,,,,,,,36,B,2023-12-18_10h28.06.373,gca_avoidance_task,2022.2.4,143.8884117204982,
,,,,,,,,,16,0,16,0,,,,,,,,,,,,,,,,,,,,,,,,,,,,,,6.0,1.1843813000014052,,,,,,,,,,,,,,,,,,,,36,B,2023-12-18_10h28.06.373,gca_avoidance_task,2022.2.4,143.8884117204982,
,,,,,,,,,17,0,17,0,,,,,,,,,,,,,,,,,,,,,,,,,,,,,,7.0,0.6070892999414355,,,,,,,,,,,,,,,,,,,,36,B,2023-12-18_10h28.06.373,gca_avoidance_task,2022.2.4,143.8884117204982,
,,,,,,,,,18,0,18,0,,,,,,,,,,,,,,,,,,,,,,,,,,,,,,7.0,1.7877640000078827,,,,,,,,,,,,,,,,,,,,36,B,2023-12-18_10h28.06.373,gca_avoidance_task,2022.2.4,143.8884117204982,
,,,,,,,,,19,0,19,0,,,,,,,,,,,,,,,,,,,,,,,,,,,,,,5.0,0.9394664999563247,,,,,,,,,,,,,,,,,,,,36,B,2023-12-18_10h28.06.373,gca_avoidance_task,2022.2.4,143.8884117204982,
,,,,,,,,,20,0,20,0,,,,,,,,,,,,,,,,,,,,,,,,,,,,,,6.0,1.5759163999464363,,,,,,,,,,,,,,,,,,,,36,B,2023-12-18_10h28.06.373,gca_avoidance_task,2022.2.4,143.8884117204982,
positions.xlsx,stimuli.xlsx,stimuli/Social2.png,stimuli/Social1.png,stimuli/Nonsocial1.png,stimuli/Nonsocial2.png,cs_plus_ns,,,,,,,0,0,0,0,0,0,0,1,,,,,,,,,,,,,,,,,,,,,,,,264.6737061999738,294.34292790002655,4.0,9.056580199976452,,,,,,,,,,,,,,,,36,B,2023-12-18_10h28.06.373,gca_avoidance_task,2022.2.4,143.8884117204982,
positions.xlsx,stimuli.xlsx,stimuli/Social2.png,stimuli/Social1.png,stimuli/Nonsocial1.png,stimuli/Nonsocial2.png,cs_plus_s,,,,,,,0,0,0,0,0,1,1,0,,,,,,,,,,,,,,,,,,,,,,,,,305.4119391000131,8.0,4.4590826000785455,,,,,,,,,,,,,,,,36,B,2023-12-18_10h28.06.373,gca_avoidance_task,2022.2.4,143.8884117204982,
positions.xlsx,stimuli.xlsx,stimuli/Social2.png,stimuli/Social1.png,stimuli/Nonsocial1.png,stimuli/Nonsocial2.png,cs_minus_ns,,,,,,,0,0,0,0,0,2,2,3,,,,,,,,,,,,,,,,,,,,,,,,,312.0366634000093,4.0,6.555755100096576,,,,,,,,,,,,,,,,36,B,2023-12-18_10h28.06.373,gca_avoidance_task,2022.2.4,143.8884117204982,
positions.xlsx,stimuli.xlsx,stimuli/Social2.png,stimuli/Social1.png,stimuli/Nonsocial1.png,stimuli/Nonsocial2.png,cs_minus_s,,,,,,,0,0,0,0,0,3,3,2,,,,,,,,,,,,,,,,,,,,,,,,,319.4669584999792,7.0,3.0082043999573216,,,,,,,,,,,,,,,,36,B,2023-12-18_10h28.06.373,gca_avoidance_task,2022.2.4,143.8884117204982,
positions.xlsx,stimuli.xlsx,stimuli/Social2.png,stimuli/Social1.png,stimuli/Nonsocial1.png,stimuli/Nonsocial2.png,,"(0.7, 0.5)",cs_minus_ns,,,,,0,0,0,0,,,,,0,0,0,14,,,,,,,,,,,,,,,,,,,,,,,,325.49444529996254,349.4101514000213,5,reward,1,0.20165990001987666,0.2016636999323964,349.625441399985,,,,,,,,36,B,2023-12-18_10h28.06.373,gca_avoidance_task,2022.2.4,143.8884117204982,
positions.xlsx,stimuli.xlsx,stimuli/Social2.png,stimuli/Social1.png,stimuli/Nonsocial1.png,stimuli/Nonsocial2.png,,"(0.7, -0.5)",cs_minus_ns,,,,,0,0,0,0,,,,,0,1,1,15,,,,,,,,,,,,,,,,,,,,,,,,,359.8402851000428,10,reward,1,0.20856619998812675,0.20857009990140796,360.0555783000309,,,,,,,,36,B,2023-12-18_10h28.06.373,gca_avoidance_task,2022.2.4,143.8884117204982,
positions.xlsx,stimuli.xlsx,stimuli/Social2.png,stimuli/Social1.png,stimuli/Nonsocial1.png,stimuli/Nonsocial2.png,,"(-0.7, -0.5)",cs_plus_ns,,,,,0,0,0,0,,,,,0,2,2,9,,,,,,,,,,,,,,,,,,,,,,,,,369.2635308000026,10,shock,1,0.257271199952811,0.25727489998098463,369.5273869000375,,,,,,,,36,B,2023-12-18_10h28.06.373,gca_avoidance_task,2022.2.4,143.8884117204982,
positions.xlsx,stimuli.xlsx,stimuli/Social2.png,stimuli/Social1.png,stimuli/Nonsocial1.png,stimuli/Nonsocial2.png,,"(-0.7, -0.5)",cs_minus_s,,,,,0,0,0,0,,,,,0,3,3,5,,,,,,,,,,,,,,,,,,,,,,,,,378.5687100000214,15,reward,1,0.5697355000302196,0.5766859001014382,379.15202180005144,,,,,,,,36,B,2023-12-18_10h28.06.373,gca_avoidance_task,2022.2.4,143.8884117204982,
positions.xlsx,stimuli.xlsx,stimuli/Social2.png,stimuli/Social1.png,stimuli/Nonsocial1.png,stimuli/Nonsocial2.png,,"(-0.7, 0.5)",cs_plus_ns,,,,,0,0,0,0,,,,,0,4,4,8,,,,,,,,,,,,,,,,,,,,,,,,,388.915537300054,15,shock,1,0.3615199000341818,0.36152370006311685,389.28358379995916,,,,,,,,36,B,2023-12-18_10h28.06.373,gca_avoidance_task,2022.2.4,143.8884117204982,
positions.xlsx,stimuli.xlsx,stimuli/Social2.png,stimuli/Social1.png,stimuli/Nonsocial1.png,stimuli/Nonsocial2.png,,"(-0.7, -0.5)",cs_plus_s,,,,,0,0,0,0,,,,,0,5,5,1,,,,,,,,,,,,,,,,,,,,,,,,,398.22070770000573,15,shock,1,0.45137000002432615,0.45137369993608445,398.6790081000654,,,,,,,,36,B,2023-12-18_10h28.06.373,gca_avoidance_task,2022.2.4,143.8884117204982,
positions.xlsx,stimuli.xlsx,stimuli/Social2.png,stimuli/Social1.png,stimuli/Nonsocial1.png,stimuli/Nonsocial2.png,,"(-0.7, 0.5)",cs_plus_s,,,,,0,0,0,0,,,,,0,6,6,0,,,,,,,,,,,,,,,,,,,,,,,,,408.90777709998656,15,shock,1,0.3681384000228718,0.3681418999331072,409.2758000000613,,,,,,,,36,B,2023-12-18_10h28.06.373,gca_avoidance_task,2022.2.4,143.8884117204982,
positions.xlsx,stimuli.xlsx,stimuli/Social2.png,stimuli/Social1.png,stimuli/Nonsocial1.png,stimuli/Nonsocial2.png,,"(-0.7, -0.5)",cs_minus_ns,,,,,0,0,0,0,,,,,0,7,7,13,,,,,,,,,,,,,,,,,,,,,,,,,418.92821469996125,20,reward,1,4.61769570002798,4.617699700058438,423.55301779997535,,,,,,,,36,B,2023-12-18_10h28.06.373,gca_avoidance_task,2022.2.4,143.8884117204982,
positions.xlsx,stimuli.xlsx,stimuli/Social2.png,stimuli/Social1.png,stimuli/Nonsocial1.png,stimuli/Nonsocial2.png,,"(0.7, -0.5)",cs_minus_s,,,,,0,0,0,0,,,,,0,8,8,7,,,,,,,,,,,,,,,,,,,,,,,,,433.6428919000318,25,reward,1,0.6111897999653593,0.6111935999942943,434.2609504000284,,,,,,,,36,B,2023-12-18_10h28.06.373,gca_avoidance_task,2022.2.4,143.8884117204982,
positions.xlsx,stimuli.xlsx,stimuli/Social2.png,stimuli/Social1.png,stimuli/Nonsocial1.png,stimuli/Nonsocial2.png,,"(-0.7, 0.5)",cs_minus_ns,,,,,0,0,0,0,,,,,0,9,9,12,,,,,,,,,,,,,,,,,,,,,,,,,442.93420909997076,30,reward,1,0.2154540999326855,0.21545809996314347,443.156410500058,,,,,,,,36,B,2023-12-18_10h28.06.373,gca_avoidance_task,2022.2.4,143.8884117204982,
positions.xlsx,stimuli.xlsx,stimuli/Social2.png,stimuli/Social1.png,stimuli/Nonsocial1.png,stimuli/Nonsocial2.png,,"(0.7, -0.5)",cs_plus_ns,,,,,0,0,0,0,,,,,0,10,10,11,,,,,,,,,,,,,,,,,,,,,,,,,452.46159449999686,30,shock,1,0.3547950000502169,0.354798800079152,452.822749700048,,,,,,,,36,B,2023-12-18_10h28.06.373,gca_avoidance_task,2022.2.4,143.8884117204982,
positions.xlsx,stimuli.xlsx,stimuli/Social2.png,stimuli/Social1.png,stimuli/Nonsocial1.png,stimuli/Nonsocial2.png,,"(0.7, 0.5)",cs_plus_ns,,,,,0,0,0,0,,,,,0,11,11,10,,,,,,,,,,,,,,,,,,,,,,,,,462.5445326999761,30,shock,1,0.27789360005408525,0.277897399966605,462.8292545999866,,,,,,,,36,B,2023-12-18_10h28.06.373,gca_avoidance_task,2022.2.4,143.8884117204982,
positions.xlsx,stimuli.xlsx,stimuli/Social2.png,stimuli/Social1.png,stimuli/Nonsocial1.png,stimuli/Nonsocial2.png,,"(0.7, -0.5)",cs_plus_s,,,,,0,0,0,0,,,,,0,12,12,3,,,,,,,,,,,,,,,,,,,,,,,,,473.0371365000028,30,shock,1,0.5555233999621123,0.5555272999918088,473.59962300001644,,,,,,,,36,B,2023-12-18_10h28.06.373,gca_avoidance_task,2022.2.4,143.8884117204982,
positions.xlsx,stimuli.xlsx,stimuli/Social2.png,stimuli/Social1.png,stimuli/Nonsocial1.png,stimuli/Nonsocial2.png,,"(-0.7, 0.5)",cs_minus_s,,,,,0,0,0,0,,,,,0,13,13,4,,,,,,,,,,,,,,,,,,,,,,,,,482.9950698000612,35,reward,1,0.15316580003127456,0.1531695999437943,483.15480999997817,,,,,,,,36,B,2023-12-18_10h28.06.373,gca_avoidance_task,2022.2.4,143.8884117204982,
positions.xlsx,stimuli.xlsx,stimuli/Social2.png,stimuli/Social1.png,stimuli/Nonsocial1.png,stimuli/Nonsocial2.png,,"(0.7, 0.5)",cs_plus_s,,,,,0,0,0,0,,,,,0,14,14,2,,,,,,,,,,,,,,,,,,,,,,,,,493.16830340004526,35,shock,1,1.8887600000016391,1.888763599912636,495.0640342000406,,,,,,,,36,B,2023-12-18_10h28.06.373,gca_avoidance_task,2022.2.4,143.8884117204982,
positions.xlsx,stimuli.xlsx,stimuli/Social2.png,stimuli/Social1.png,stimuli/Nonsocial1.png,stimuli/Nonsocial2.png,,"(0.7, 0.5)",cs_minus_s,,,,,0,0,0,0,,,,,0,15,15,6,,,,,,,,,,,,,,,,,,,,,,,,,504.23032660002355,40,reward,1,3.8339549000374973,3.8339585999492556,508.07046059996355,,,,,,,,36,B,2023-12-18_10h28.06.373,gca_avoidance_task,2022.2.4,143.8884117204982,
positions.xlsx,stimuli.xlsx,stimuli/Social2.png,stimuli/Social1.png,stimuli/Nonsocial1.png,stimuli/Nonsocial2.png,,"(-0.7, -0.5)",cs_minus_s,,,,,0,0,0,0,,,,,1,0,16,5,,,,,,,,,,,,,,,,,,,,,,,,,517.4867657000432,45,reward,1,0.14570520003326237,0.145708900061436,517.6396001999965,,,,,,,,36,B,2023-12-18_10h28.06.373,gca_avoidance_task,2022.2.4,143.8884117204982,
positions.xlsx,stimuli.xlsx,stimuli/Social2.png,stimuli/Social1.png,stimuli/Nonsocial1.png,stimuli/Nonsocial2.png,,"(-0.7, -0.5)",cs_plus_s,,,,,0,0,0,0,,,,,1,1,17,1,,,,,,,,,,,,,,,,,,,,,,,,,527.9377344000386,45,shock,1,0.597306500072591,0.5973105999873951,528.5349407000467,,,,,,,,36,B,2023-12-18_10h28.06.373,gca_avoidance_task,2022.2.4,143.8884117204982,
positions.xlsx,stimuli.xlsx,stimuli/Social2.png,stimuli/Social1.png,stimuli/Nonsocial1.png,stimuli/Nonsocial2.png,,"(0.7, 0.5)",cs_plus_ns,,,,,0,0,0,0,,,,,1,2,18,10,,,,,,,,,,,,,,,,,,,,,,,,,537.5831603000406,45,shock,1,3.500134199974127,3.507051600026898,541.0969157000072,,,,,,,,36,B,2023-12-18_10h28.06.373,gca_avoidance_task,2022.2.4,143.8884117204982,
positions.xlsx,stimuli.xlsx,stimuli/Social2.png,stimuli/Social1.png,stimuli/Nonsocial1.png,stimuli/Nonsocial2.png,,"(-0.7, 0.5)",cs_plus_s,,,,,0,0,0,0,,,,,1,3,19,0,,,,,,,,,,,,,,,,,,,,,,,,,550.2632235999918,45,shock,1,0.17377659992780536,0.17378039995674044,550.4437879000325,,,,,,,,36,B,2023-12-18_10h28.06.373,gca_avoidance_task,2022.2.4,143.8884117204982,
positions.xlsx,stimuli.xlsx,stimuli/Social2.png,stimuli/Social1.png,stimuli/Nonsocial1.png,stimuli/Nonsocial2.png,,"(0.7, -0.5)",cs_minus_s,,,,,0,0,0,0,,,,,1,4,20,7,,,,,,,,,,,,,,,,,,,,,,,,,560.1170063000172,50,reward,1,0.18776530004106462,0.18776900006923825,560.3114471000154,,,,,,,,36,B,2023-12-18_10h28.06.373,gca_avoidance_task,2022.2.4,143.8884117204982,
positions.xlsx,stimuli.xlsx,stimuli/Social2.png,stimuli/Social1.png,stimuli/Nonsocial1.png,stimuli/Nonsocial2.png,,"(0.7, -0.5)",cs_plus_ns,,,,,0,0,0,0,,,,,1,5,21,11,,,,,,,,,,,,,,,,,,,,,,,,,569.8040705999592,50,shock,1,0.30597940005827695,0.305983200087212,570.1166236000136,,,,,,,,36,B,2023-12-18_10h28.06.373,gca_avoidance_task,2022.2.4,143.8884117204982,
positions.xlsx,stimuli.xlsx,stimuli/Social2.png,stimuli/Social1.png,stimuli/Nonsocial1.png,stimuli/Nonsocial2.png,,"(0.7, 0.5)",cs_minus_s,,,,,0,0,0,0,,,,,1,6,22,6,,,,,,,,,,,,,,,,,,,,,,,,,579.7967504999833,55,reward,1,0.20859360008034855,0.21537089999765158,580.0189747000113,,,,,,,,36,B,2023-12-18_10h28.06.373,gca_avoidance_task,2022.2.4,143.8884117204982,
positions.xlsx,stimuli.xlsx,stimuli/Social2.png,stimuli/Social1.png,stimuli/Nonsocial1.png,stimuli/Nonsocial2.png,,"(0.7, 0.5)",cs_plus_s,,,,,0,0,0,0,,,,,1,7,23,2,,,,,,,,,,,,,,,,,,,,,,,,,589.3796996000456,55,shock,1,0.2640473999781534,0.26405130000784993,589.6505418999586,,,,,,,,36,B,2023-12-18_10h28.06.373,gca_avoidance_task,2022.2.4,143.8884117204982,
positions.xlsx,stimuli.xlsx,stimuli/Social2.png,stimuli/Social1.png,stimuli/Nonsocial1.png,stimuli/Nonsocial2.png,,"(0.7, -0.5)",cs_minus_ns,,,,,0,0,0,0,,,,,1,8,24,15,,,,,,,,,,,,,,,,,,,,,,,,,599.1779527000617,60,reward,1,0.3267455999739468,0.32674930000212044,599.5112653999822,,,,,,,,36,B,2023-12-18_10h28.06.373,gca_avoidance_task,2022.2.4,143.8884117204982,
positions.xlsx,stimuli.xlsx,stimuli/Social2.png,stimuli/Social1.png,stimuli/Nonsocial1.png,stimuli/Nonsocial2.png,,"(0.7, -0.5)",cs_plus_s,,,,,0,0,0,0,,,,,1,9,25,3,,,,,,,,,,,,,,,,,,,,,,,,,609.4483375999844,60,shock,1,0.19471900002099574,0.19472270004916936,609.6497434000485,,,,,,,,36,B,2023-12-18_10h28.06.373,gca_avoidance_task,2022.2.4,143.8884117204982,
positions.xlsx,stimuli.xlsx,stimuli/Social2.png,stimuli/Social1.png,stimuli/Nonsocial1.png,stimuli/Nonsocial2.png,,"(-0.7, 0.5)",cs_plus_ns,,,,,0,0,0,0,,,,,1,10,26,8,,,,,,,,,,,,,,,,,,,,,,,,,618.5452047999715,60,shock,1,0.16668399993795902,0.16668769996613264,618.7188385999762,,,,,,,,36,B,2023-12-18_10h28.06.373,gca_avoidance_task,2022.2.4,143.8884117204982,
positions.xlsx,stimuli.xlsx,stimuli/Social2.png,stimuli/Social1.png,stimuli/Nonsocial1.png,stimuli/Nonsocial2.png,,"(0.7, 0.5)",cs_minus_ns,,,,,0,0,0,0,,,,,1,11,27,14,,,,,,,,,,,,,,,,,,,,,,,,,628.169838199974,65,reward,1,0.23629660008009523,0.23630039999261498,628.4128650999628,,,,,,,,36,B,2023-12-18_10h28.06.373,gca_avoidance_task,2022.2.4,143.8884117204982,
positions.xlsx,stimuli.xlsx,stimuli/Social2.png,stimuli/Social1.png,stimuli/Nonsocial1.png,stimuli/Nonsocial2.png,,"(-0.7, -0.5)",cs_minus_ns,,,,,0,0,0,0,,,,,1,12,28,13,,,,,,,,,,,,,,,,,,,,,,,,,638.4819373000646,70,reward,1,0.16695149999577552,0.16695520002394915,638.6555181000149,,,,,,,,36,B,2023-12-18_10h28.06.373,gca_avoidance_task,2022.2.4,143.8884117204982,
positions.xlsx,stimuli.xlsx,stimuli/Social2.png,stimuli/Social1.png,stimuli/Nonsocial1.png,stimuli/Nonsocial2.png,,"(-0.7, 0.5)",cs_minus_ns,,,,,0,0,0,0,,,,,1,13,29,12,,,,,,,,,,,,,,,,,,,,,,,,,648.3287457000697,75,reward,1,0.26426789991091937,0.26427149993833154,648.5995722999796,,,,,,,,36,B,2023-12-18_10h28.06.373,gca_avoidance_task,2022.2.4,143.8884117204982,
positions.xlsx,stimuli.xlsx,stimuli/Social2.png,stimuli/Social1.png,stimuli/Nonsocial1.png,stimuli/Nonsocial2.png,,"(-0.7, -0.5)",cs_plus_ns,,,,,0,0,0,0,,,,,1,14,30,9,,,,,,,,,,,,,,,,,,,,,,,,,657.5228025000542,75,shock,1,0.16718550003133714,0.16718920005951077,657.6964140000055,,,,,,,,36,B,2023-12-18_10h28.06.373,gca_avoidance_task,2022.2.4,143.8884117204982,
positions.xlsx,stimuli.xlsx,stimuli/Social2.png,stimuli/Social1.png,stimuli/Nonsocial1.png,stimuli/Nonsocial2.png,,"(-0.7, 0.5)",cs_minus_s,,,,,0,0,0,0,,,,,1,15,31,4,,,,,,,,,,,,,,,,,,,,,,,,,666.7168817999773,80,reward,1,0.34726209996733814,0.3472656999947503,667.0710509000346,,,,,,,,36,B,2023-12-18_10h28.06.373,gca_avoidance_task,2022.2.4,143.8884117204982,
positions.xlsx,stimuli.xlsx,stimuli/Social2.png,stimuli/Social1.png,stimuli/Nonsocial1.png,stimuli/Nonsocial2.png,,"(-0.7, 0.5)",cs_plus_s,,,,,0,0,0,0,,,,,,,,,0,0,0,0,,,,,,,,,,,,,,,,,,,,,700.2989094000077,80,shock,1,0.4377026000292972,0.43770620005670935,700.74332889996,,,,,,,,36,B,2023-12-18_10h28.06.373,gca_avoidance_task,2022.2.4,143.8884117204982,
positions.xlsx,stimuli.xlsx,stimuli/Social2.png,stimuli/Social1.png,stimuli/Nonsocial1.png,stimuli/Nonsocial2.png,,"(-0.7, -0.5)",cs_plus_s,,,,,0,0,0,0,,,,,,,,,0,1,1,1,,,,,,,,,,,,,,,,,,,,,709.9234963000054,80,none,0,,,714.9302427000366,,,,,,,,36,B,2023-12-18_10h28.06.373,gca_avoidance_task,2022.2.4,143.8884117204982,
positions.xlsx,stimuli.xlsx,stimuli/Social2.png,stimuli/Social1.png,stimuli/Nonsocial1.png,stimuli/Nonsocial2.png,,"(0.7, -0.5)",cs_minus_ns,,,,,0,0,0,0,,,,,,,,,0,2,2,15,,,,,,,,,,,,,,,,,,,,,724.6312409000238,85,reward,1,0.20816330006346107,0.20816709997598082,724.846554000047,,,,,,,,36,B,2023-12-18_10h28.06.373,gca_avoidance_task,2022.2.4,143.8884117204982,
positions.xlsx,stimuli.xlsx,stimuli/Social2.png,stimuli/Social1.png,stimuli/Nonsocial1.png,stimuli/Nonsocial2.png,,"(0.7, -0.5)",cs_plus_s,,,,,0,0,0,0,,,,,,,,,0,3,3,3,,,,,,,,,,,,,,,,,,,,,734.2003040000563,85,none,0,,,739.2070698000025,,,,,,,,36,B,2023-12-18_10h28.06.373,gca_avoidance_task,2022.2.4,143.8884117204982,
positions.xlsx,stimuli.xlsx,stimuli/Social2.png,stimuli/Social1.png,stimuli/Nonsocial1.png,stimuli/Nonsocial2.png,,"(0.7, -0.5)",cs_minus_s,,,,,0,0,0,0,,,,,,,,,0,4,4,7,,,,,,,,,,,,,,,,,,,,,748.6580578000285,90,reward,1,0.4999765999382362,0.49998039996717125,749.1650169000495,,,,,,,,36,B,2023-12-18_10h28.06.373,gca_avoidance_task,2022.2.4,143.8884117204982,
positions.xlsx,stimuli.xlsx,stimuli/Social2.png,stimuli/Social1.png,stimuli/Nonsocial1.png,stimuli/Nonsocial2.png,,"(0.7, 0.5)",cs_plus_ns,,,,,0,0,0,0,,,,,,,,,0,5,5,10,,,,,,,,,,,,,,,,,,,,,758.8382264999673,90,none,0,,,763.8449721999932,,,,,,,,36,B,2023-12-18_10h28.06.373,gca_avoidance_task,2022.2.4,143.8884117204982,
positions.xlsx,stimuli.xlsx,stimuli/Social2.png,stimuli/Social1.png,stimuli/Nonsocial1.png,stimuli/Nonsocial2.png,,"(-0.7, -0.5)",cs_minus_ns,,,,,0,0,0,0,,,,,,,,,0,6,6,13,,,,,,,,,,,,,,,,,,,,,773.7403855000157,95,reward,1,0.771154300076887,0.7711578001035377,774.5181512000272,,,,,,,,36,B,2023-12-18_10h28.06.373,gca_avoidance_task,2022.2.4,143.8884117204982,
positions.xlsx,stimuli.xlsx,stimuli/Social2.png,stimuli/Social1.png,stimuli/Nonsocial1.png,stimuli/Nonsocial2.png,,"(-0.7, 0.5)",cs_minus_s,,,,,0,0,0,0,,,,,,,,,0,7,7,4,,,,,,,,,,,,,,,,,,,,,784.219148300006,100,reward,1,0.5768223999766633,0.5768263000063598,784.8025007999968,,,,,,,,36,B,2023-12-18_10h28.06.373,gca_avoidance_task,2022.2.4,143.8884117204982,
positions.xlsx,stimuli.xlsx,stimuli/Social2.png,stimuli/Social1.png,stimuli/Nonsocial1.png,stimuli/Nonsocial2.png,,"(0.7, 0.5)",cs_minus_s,,,,,0,0,0,0,,,,,,,,,0,8,8,6,,,,,,,,,,,,,,,,,,,,,793.4409986999817,105,reward,1,0.4798982000211254,0.47990180004853755,793.9270751000149,,,,,,,,36,B,2023-12-18_10h28.06.373,gca_avoidance_task,2022.2.4,143.8884117204982,
positions.xlsx,stimuli.xlsx,stimuli/Social2.png,stimuli/Social1.png,stimuli/Nonsocial1.png,stimuli/Nonsocial2.png,,"(0.7, 0.5)",cs_minus_ns,,,,,0,0,0,0,,,,,,,,,0,9,9,14,,,,,,,,,,,,,,,,,,,,,803.2322846000316,110,reward,1,1.291875599999912,1.2918792000273243,804.5308480999665,,,,,,,,36,B,2023-12-18_10h28.06.373,gca_avoidance_task,2022.2.4,143.8884117204982,
positions.xlsx,stimuli.xlsx,stimuli/Social2.png,stimuli/Social1.png,stimuli/Nonsocial1.png,stimuli/Nonsocial2.png,,"(-0.7, -0.5)",cs_minus_s,,,,,0,0,0,0,,,,,,,,,0,10,10,5,,,,,,,,,,,,,,,,,,,,,813.4957386000315,115,reward,1,0.5765711999265477,0.5765749999554828,814.0790657000616,,,,,,,,36,B,2023-12-18_10h28.06.373,gca_avoidance_task,2022.2.4,143.8884117204982,
positions.xlsx,stimuli.xlsx,stimuli/Social2.png,stimuli/Social1.png,stimuli/Nonsocial1.png,stimuli/Nonsocial2.png,,"(0.7, 0.5)",cs_plus_s,,,,,0,0,0,0,,,,,,,,,0,11,11,2,,,,,,,,,,,,,,,,,,,,,824.2245014000218,115,none,0,,,829.2312365999678,,,,,,,,36,B,2023-12-18_10h28.06.373,gca_avoidance_task,2022.2.4,143.8884117204982,
positions.xlsx,stimuli.xlsx,stimuli/Social2.png,stimuli/Social1.png,stimuli/Nonsocial1.png,stimuli/Nonsocial2.png,,"(0.7, -0.5)",cs_plus_ns,,,,,0,0,0,0,,,,,,,,,0,12,12,11,,,,,,,,,,,,,,,,,,,,,839.0641711000353,115,none,0,,,844.0709429000271,,,,,,,,36,B,2023-12-18_10h28.06.373,gca_avoidance_task,2022.2.4,143.8884117204982,
positions.xlsx,stimuli.xlsx,stimuli/Social2.png,stimuli/Social1.png,stimuli/Nonsocial1.png,stimuli/Nonsocial2.png,,"(-0.7, -0.5)",cs_plus_ns,,,,,0,0,0,0,,,,,,,,,0,13,13,9,,,,,,,,,,,,,,,,,,,,,852.75807109999,115,none,0,,,857.764790300047,,,,,,,,36,B,2023-12-18_10h28.06.373,gca_avoidance_task,2022.2.4,143.8884117204982,
positions.xlsx,stimuli.xlsx,stimuli/Social2.png,stimuli/Social1.png,stimuli/Nonsocial1.png,stimuli/Nonsocial2.png,,"(-0.7, 0.5)",cs_plus_ns,,,,,0,0,0,0,,,,,,,,,0,14,14,8,,,,,,,,,,,,,,,,,,,,,867.3130230000243,115,shock,1,0.25000420003198087,0.2500077000586316,867.5699892999837,,,,,,,,36,B,2023-12-18_10h28.06.373,gca_avoidance_task,2022.2.4,143.8884117204982,
positions.xlsx,stimuli.xlsx,stimuli/Social2.png,stimuli/Social1.png,stimuli/Nonsocial1.png,stimuli/Nonsocial2.png,,"(-0.7, 0.5)",cs_minus_ns,,,,,0,0,0,0,,,,,,,,,0,15,15,12,,,,,,,,,,,,,,,,,,,,,876.7293395000743,120,reward,1,0.8475745999021456,0.8475783999310806,877.5834996000631,,,,,,,,36,B,2023-12-18_10h28.06.373,gca_avoidance_task,2022.2.4,143.8884117204982,
positions.xlsx,stimuli.xlsx,stimuli/Social2.png,stimuli/Social1.png,stimuli/Nonsocial1.png,stimuli/Nonsocial2.png,,"(0.7, 0.5)",cs_plus_s,,,,,0,0,0,0,,,,,,,,,1,0,16,2,,,,,,,,,,,,,,,,,,,,,887.7358536999673,120,none,0,,,892.7425752000418,,,,,,,,36,B,2023-12-18_10h28.06.373,gca_avoidance_task,2022.2.4,143.8884117204982,
positions.xlsx,stimuli.xlsx,stimuli/Social2.png,stimuli/Social1.png,stimuli/Nonsocial1.png,stimuli/Nonsocial2.png,,"(0.7, -0.5)",cs_minus_s,,,,,0,0,0,0,,,,,,,,,1,1,17,7,,,,,,,,,,,,,,,,,,,,,901.9574971999973,125,reward,1,0.6672228999668732,0.6740433999802917,902.6380550999893,,,,,,,,36,B,2023-12-18_10h28.06.373,gca_avoidance_task,2022.2.4,143.8884117204982,
positions.xlsx,stimuli.xlsx,stimuli/Social2.png,stimuli/Social1.png,stimuli/Nonsocial1.png,stimuli/Nonsocial2.png,,"(-0.7, 0.5)",cs_minus_s,,,,,0,0,0,0,,,,,,,,,1,2,18,4,,,,,,,,,,,,,,,,,,,,,911.7071079000598,130,reward,1,0.20178329991176724,0.20178669993765652,911.9154692000011,,,,,,,,36,B,2023-12-18_10h28.06.373,gca_avoidance_task,2022.2.4,143.8884117204982,
positions.xlsx,stimuli.xlsx,stimuli/Social2.png,stimuli/Social1.png,stimuli/Nonsocial1.png,stimuli/Nonsocial2.png,,"(0.7, 0.5)",cs_minus_ns,,,,,0,0,0,0,,,,,,,,,1,3,19,14,,,,,,,,,,,,,,,,,,,,,921.1442451999756,135,reward,1,0.6181122999405488,0.618115899967961,921.7691962000681,,,,,,,,36,B,2023-12-18_10h28.06.373,gca_avoidance_task,2022.2.4,143.8884117204982,
positions.xlsx,stimuli.xlsx,stimuli/Social2.png,stimuli/Social1.png,stimuli/Nonsocial1.png,stimuli/Nonsocial2.png,,"(0.7, 0.5)",cs_minus_s,,,,,0,0,0,0,,,,,,,,,1,4,20,6,,,,,,,,,,,,,,,,,,,,,931.7827433999628,140,reward,1,0.31229210004676133,0.31229599996004254,932.102122799959,,,,,,,,36,B,2023-12-18_10h28.06.373,gca_avoidance_task,2022.2.4,143.8884117204982,
positions.xlsx,stimuli.xlsx,stimuli/Social2.png,stimuli/Social1.png,stimuli/Nonsocial1.png,stimuli/Nonsocial2.png,,"(0.7, -0.5)",cs_plus_ns,,,,,0,0,0,0,,,,,,,,,1,5,21,11,,,,,,,,,,,,,,,,,,,,,941.0253859000513,140,none,0,,,946.0321375000058,,,,,,,,36,B,2023-12-18_10h28.06.373,gca_avoidance_task,2022.2.4,143.8884117204982,
positions.xlsx,stimuli.xlsx,stimuli/Social2.png,stimuli/Social1.png,stimuli/Nonsocial1.png,stimuli/Nonsocial2.png,,"(-0.7, -0.5)",cs_plus_ns,,,,,0,0,0,0,,,,,,,,,1,6,22,9,,,,,,,,,,,,,,,,,,,,,954.7679021999938,140,none,0,,,959.7746510000434,,,,,,,,36,B,2023-12-18_10h28.06.373,gca_avoidance_task,2022.2.4,143.8884117204982,
positions.xlsx,stimuli.xlsx,stimuli/Social2.png,stimuli/Social1.png,stimuli/Nonsocial1.png,stimuli/Nonsocial2.png,,"(-0.7, 0.5)",cs_plus_s,,,,,0,0,0,0,,,,,,,,,1,7,23,0,,,,,,,,,,,,,,,,,,,,,969.2187384000281,140,none,0,,,974.2254534000531,,,,,,,,36,B,2023-12-18_10h28.06.373,gca_avoidance_task,2022.2.4,143.8884117204982,
positions.xlsx,stimuli.xlsx,stimuli/Social2.png,stimuli/Social1.png,stimuli/Nonsocial1.png,stimuli/Nonsocial2.png,,"(0.7, 0.5)",cs_plus_ns,,,,,0,0,0,0,,,,,,,,,1,8,24,10,,,,,,,,,,,,,,,,,,,,,983.5375988000305,140,none,0,,,988.5443714000285,,,,,,,,36,B,2023-12-18_10h28.06.373,gca_avoidance_task,2022.2.4,143.8884117204982,
positions.xlsx,stimuli.xlsx,stimuli/Social2.png,stimuli/Social1.png,stimuli/Nonsocial1.png,stimuli/Nonsocial2.png,,"(-0.7, 0.5)",cs_plus_ns,,,,,0,0,0,0,,,,,,,,,1,9,25,8,,,,,,,,,,,,,,,,,,,,,998.3842275000643,140,none,0,,,1003.3909414999653,,,,,,,,36,B,2023-12-18_10h28.06.373,gca_avoidance_task,2022.2.4,143.8884117204982,
positions.xlsx,stimuli.xlsx,stimuli/Social2.png,stimuli/Social1.png,stimuli/Nonsocial1.png,stimuli/Nonsocial2.png,,"(0.7, -0.5)",cs_plus_s,,,,,0,0,0,0,,,,,,,,,1,10,26,3,,,,,,,,,,,,,,,,,,,,,1013.2516932999715,140,shock,1,0.3337671000044793,0.33377090003341436,1013.5850226000184,,,,,,,,36,B,2023-12-18_10h28.06.373,gca_avoidance_task,2022.2.4,143.8884117204982,
positions.xlsx,stimuli.xlsx,stimuli/Social2.png,stimuli/Social1.png,stimuli/Nonsocial1.png,stimuli/Nonsocial2.png,,"(-0.7, 0.5)",cs_minus_ns,,,,,0,0,0,0,,,,,,,,,1,11,27,12,,,,,,,,,,,,,,,,,,,,,1023.1888001000043,145,reward,1,0.6596644999226555,0.6596680999500677,1023.8554546000669,,,,,,,,36,B,2023-12-18_10h28.06.373,gca_avoidance_task,2022.2.4,143.8884117204982,
positions.xlsx,stimuli.xlsx,stimuli/Social2.png,stimuli/Social1.png,stimuli/Nonsocial1.png,stimuli/Nonsocial2.png,,"(-0.7, -0.5)",cs_minus_s,,,,,0,0,0,0,,,,,,,,,1,12,28,5,,,,,,,,,,,,,,,,,,,,,1034.1883594000246,150,reward,1,0.5838069999590516,0.5838108999887481,1034.778617199976,,,,,,,,36,B,2023-12-18_10h28.06.373,gca_avoidance_task,2022.2.4,143.8884117204982,
positions.xlsx,stimuli.xlsx,stimuli/Social2.png,stimuli/Social1.png,stimuli/Nonsocial1.png,stimuli/Nonsocial2.png,,"(-0.7, -0.5)",cs_plus_s,,,,,0,0,0,0,,,,,,,,,1,13,29,1,,,,,,,,,,,,,,,,,,,,,1043.9310442999704,150,none,0,,,1048.9377944000298,,,,,,,,36,B,2023-12-18_10h28.06.373,gca_avoidance_task,2022.2.4,143.8884117204982,
positions.xlsx,stimuli.xlsx,stimuli/Social2.png,stimuli/Social1.png,stimuli/Nonsocial1.png,stimuli/Nonsocial2.png,,"(-0.7, -0.5)",cs_minus_ns,,,,,0,0,0,0,,,,,,,,,1,14,30,13,,,,,,,,,,,,,,,,,,,,,1058.6040999999968,155,reward,1,1.2089430999476463,1.2089467999758199,1059.8193315999815,,,,,,,,36,B,2023-12-18_10h28.06.373,gca_avoidance_task,2022.2.4,143.8884117204982,
positions.xlsx,stimuli.xlsx,stimuli/Social2.png,stimuli/Social1.png,stimuli/Nonsocial1.png,stimuli/Nonsocial2.png,,"(0.7, -0.5)",cs_minus_ns,,,,,0,0,0,0,,,,,,,,,1,15,31,15,,,,,,,,,,,,,,,,,,,,,1068.9022970000515,160,reward,1,0.520995800034143,0.5209997000638396,1069.430053899996,,,,,,,,36,B,2023-12-18_10h28.06.373,gca_avoidance_task,2022.2.4,143.8884117204982,
positions.xlsx,stimuli.xlsx,stimuli/Social2.png,stimuli/Social1.png,stimuli/Nonsocial1.png,stimuli/Nonsocial2.png,,"(-0.7, -0.5)",cs_plus_s,,,,,0,0,0,0,,,,,,,,,2,0,32,1,,,,,,,,,,,,,,,,,,,,,1079.499036299996,160,none,0,,,1084.5058342000702,,,,,,,,36,B,2023-12-18_10h28.06.373,gca_avoidance_task,2022.2.4,143.8884117204982,
positions.xlsx,stimuli.xlsx,stimuli/Social2.png,stimuli/Social1.png,stimuli/Nonsocial1.png,stimuli/Nonsocial2.png,,"(0.7, 0.5)",cs_plus_s,,,,,0,0,0,0,,,,,,,,,2,1,33,2,,,,,,,,,,,,,,,,,,,,,1093.4013006000314,160,none,0,,,1098.408061800059,,,,,,,,36,B,2023-12-18_10h28.06.373,gca_avoidance_task,2022.2.4,143.8884117204982,
positions.xlsx,stimuli.xlsx,stimuli/Social2.png,stimuli/Social1.png,stimuli/Nonsocial1.png,stimuli/Nonsocial2.png,,"(-0.7, 0.5)",cs_plus_s,,,,,0,0,0,0,,,,,,,,,2,2,34,0,,,,,,,,,,,,,,,,,,,,,1108.0535084999865,160,none,0,,,1113.0602521999972,,,,,,,,36,B,2023-12-18_10h28.06.373,gca_avoidance_task,2022.2.4,143.8884117204982,
positions.xlsx,stimuli.xlsx,stimuli/Social2.png,stimuli/Social1.png,stimuli/Nonsocial1.png,stimuli/Nonsocial2.png,,"(0.7, 0.5)",cs_minus_ns,,,,,0,0,0,0,,,,,,,,,2,3,35,14,,,,,,,,,,,,,,,,,,,,,1121.9487823999953,165,reward,1,0.18758319993503392,0.18758689996320754,1122.1432014000602,,,,,,,,36,B,2023-12-18_10h28.06.373,gca_avoidance_task,2022.2.4,143.8884117204982,
positions.xlsx,stimuli.xlsx,stimuli/Social2.png,stimuli/Social1.png,stimuli/Nonsocial1.png,stimuli/Nonsocial2.png,,"(-0.7, 0.5)",cs_plus_ns,,,,,0,0,0,0,,,,,,,,,2,4,36,8,,,,,,,,,,,,,,,,,,,,,1131.3790045999922,165,none,0,,,1136.3857359000249,,,,,,,,36,B,2023-12-18_10h28.06.373,gca_avoidance_task,2022.2.4,143.8884117204982,
positions.xlsx,stimuli.xlsx,stimuli/Social2.png,stimuli/Social1.png,stimuli/Nonsocial1.png,stimuli/Nonsocial2.png,,"(-0.7, 0.5)",cs_minus_ns,,,,,0,0,0,0,,,,,,,,,2,5,37,12,,,,,,,,,,,,,,,,,,,,,1145.2187147999648,170,reward,1,0.7643691999837756,0.7643730000127107,1145.9895152000245,,,,,,,,36,B,2023-12-18_10h28.06.373,gca_avoidance_task,2022.2.4,143.8884117204982,
positions.xlsx,stimuli.xlsx,stimuli/Social2.png,stimuli/Social1.png,stimuli/Nonsocial1.png,stimuli/Nonsocial2.png,,"(-0.7, -0.5)",cs_minus_s,,,,,0,0,0,0,,,,,,,,,2,6,38,5,,,,,,,,,,,,,,,,,,,,,1155.607165500056,175,reward,1,0.7012930999044329,0.7012967999326065,1156.3155346000567,,,,,,,,36,B,2023-12-18_10h28.06.373,gca_avoidance_task,2022.2.4,143.8884117204982,
positions.xlsx,stimuli.xlsx,stimuli/Social2.png,stimuli/Social1.png,stimuli/Nonsocial1.png,stimuli/Nonsocial2.png,,"(0.7, -0.5)",cs_minus_s,,,,,0,0,0,0,,,,,,,,,2,7,39,7,,,,,,,,,,,,,,,,,,,,,1165.780379200005,180,reward,1,0.4862738000229001,0.4862776000518352,1166.2734088000143,,,,,,,,36,B,2023-12-18_10h28.06.373,gca_avoidance_task,2022.2.4,143.8884117204982,
positions.xlsx,stimuli.xlsx,stimuli/Social2.png,stimuli/Social1.png,stimuli/Nonsocial1.png,stimuli/Nonsocial2.png,,"(-0.7, -0.5)",cs_plus_ns,,,,,0,0,0,0,,,,,,,,,2,8,40,9,,,,,,,,,,,,,,,,,,,,,1175.7591734000016,180,none,0,,,1180.7658863000106,,,,,,,,36,B,2023-12-18_10h28.06.373,gca_avoidance_task,2022.2.4,143.8884117204982,
positions.xlsx,stimuli.xlsx,stimuli/Social2.png,stimuli/Social1.png,stimuli/Nonsocial1.png,stimuli/Nonsocial2.png,,"(0.7, -0.5)",cs_plus_s,,,,,0,0,0,0,,,,,,,,,2,9,41,3,,,,,,,,,,,,,,,,,,,,,1189.5086201999802,180,none,0,,,1194.5154228999745,,,,,,,,36,B,2023-12-18_10h28.06.373,gca_avoidance_task,2022.2.4,143.8884117204982,
positions.xlsx,stimuli.xlsx,stimuli/Social2.png,stimuli/Social1.png,stimuli/Nonsocial1.png,stimuli/Nonsocial2.png,,"(0.7, 0.5)",cs_minus_s,,,,,0,0,0,0,,,,,,,,,2,10,42,6,,,,,,,,,,,,,,,,,,,,,1204.077490900061,185,reward,1,0.6319530999753624,0.6319566000020131,1204.716362999985,,,,,,,,36,B,2023-12-18_10h28.06.373,gca_avoidance_task,2022.2.4,143.8884117204982,
positions.xlsx,stimuli.xlsx,stimuli/Social2.png,stimuli/Social1.png,stimuli/Nonsocial1.png,stimuli/Nonsocial2.png,,"(0.7, 0.5)",cs_plus_ns,,,,,0,0,0,0,,,,,,,,,2,11,43,10,,,,,,,,,,,,,,,,,,,,,1214.4103928999975,185,none,0,,,1219.4171483999817,,,,,,,,36,B,2023-12-18_10h28.06.373,gca_avoidance_task,2022.2.4,143.8884117204982,
positions.xlsx,stimuli.xlsx,stimuli/Social2.png,stimuli/Social1.png,stimuli/Nonsocial1.png,stimuli/Nonsocial2.png,,"(0.7, -0.5)",cs_plus_ns,,,,,0,0,0,0,,,,,,,,,2,12,44,11,,,,,,,,,,,,,,,,,,,,,1228.597420200007,185,none,0,,,1233.6041163000045,,,,,,,,36,B,2023-12-18_10h28.06.373,gca_avoidance_task,2022.2.4,143.8884117204982,
positions.xlsx,stimuli.xlsx,stimuli/Social2.png,stimuli/Social1.png,stimuli/Nonsocial1.png,stimuli/Nonsocial2.png,,"(-0.7, 0.5)",cs_minus_s,,,,,0,0,0,0,,,,,,,,,2,13,45,4,,,,,,,,,,,,,,,,,,,,,1243.3675954999635,190,reward,1,0.604615900083445,0.6046198999974877,1243.978698699968,,,,,,,,36,B,2023-12-18_10h28.06.373,gca_avoidance_task,2022.2.4,143.8884117204982,
positions.xlsx,stimuli.xlsx,stimuli/Social2.png,stimuli/Social1.png,stimuli/Nonsocial1.png,stimuli/Nonsocial2.png,,"(0.7, -0.5)",cs_minus_ns,,,,,0,0,0,0,,,,,,,,,2,14,46,15,,,,,,,,,,,,,,,,,,,,,1253.644972500042,195,reward,1,0.6739474000642076,0.6739511999767274,1254.3255227999762,,,,,,,,36,B,2023-12-18_10h28.06.373,gca_avoidance_task,2022.2.4,143.8884117204982,
positions.xlsx,stimuli.xlsx,stimuli/Social2.png,stimuli/Social1.png,stimuli/Nonsocial1.png,stimuli/Nonsocial2.png,,"(-0.7, -0.5)",cs_minus_ns,,,,,0,0,0,0,,,,,,,,,2,15,47,13,,,,,,,,,,,,,,,,,,,,,1263.4501599000068,200,reward,1,0.6391145000234246,0.6391181000508368,1264.0959469999652,,,,,,,,36,B,2023-12-18_10h28.06.373,gca_avoidance_task,2022.2.4,143.8884117204982,
positions.xlsx,stimuli.xlsx,stimuli/Social2.png,stimuli/Social1.png,stimuli/Nonsocial1.png,stimuli/Nonsocial2.png,,"(0.7, -0.5)",cs_plus_s,,,,,0,0,0,0,,,,,,,,,3,0,48,3,,,,,,,,,,,,,,,,,,,,,1273.553994399961,200,none,0,,,1278.5606493999949,,,,,,,,36,B,2023-12-18_10h28.06.373,gca_avoidance_task,2022.2.4,143.8884117204982,
positions.xlsx,stimuli.xlsx,stimuli/Social2.png,stimuli/Social1.png,stimuli/Nonsocial1.png,stimuli/Nonsocial2.png,,"(0.7, 0.5)",cs_minus_ns,,,,,0,0,0,0,,,,,,,,,3,1,49,14,,,,,,,,,,,,,,,,,,,,,1288.3658469000366,205,reward,1,0.7225059999618679,0.7225098999915645,1289.094976500026,,,,,,,,36,B,2023-12-18_10h28.06.373,gca_avoidance_task,2022.2.4,143.8884117204982,
positions.xlsx,stimuli.xlsx,stimuli/Social2.png,stimuli/Social1.png,stimuli/Nonsocial1.png,stimuli/Nonsocial2.png,,"(-0.7, -0.5)",cs_plus_ns,,,,,0,0,0,0,,,,,,,,,3,2,50,9,,,,,,,,,,,,,,,,,,,,,1298.6779149000067,205,none,0,,,1303.6846825999673,,,,,,,,36,B,2023-12-18_10h28.06.373,gca_avoidance_task,2022.2.4,143.8884117204982,
positions.xlsx,stimuli.xlsx,stimuli/Social2.png,stimuli/Social1.png,stimuli/Nonsocial1.png,stimuli/Nonsocial2.png,,"(0.7, -0.5)",cs_plus_ns,,,,,0,0,0,0,,,,,,,,,3,3,51,11,,,,,,,,,,,,,,,,,,,,,1312.6635028000455,205,none,0,,,1317.6702189999633,,,,,,,,36,B,2023-12-18_10h28.06.373,gca_avoidance_task,2022.2.4,143.8884117204982,
positions.xlsx,stimuli.xlsx,stimuli/Social2.png,stimuli/Social1.png,stimuli/Nonsocial1.png,stimuli/Nonsocial2.png,,"(-0.7, 0.5)",cs_minus_s,,,,,0,0,0,0,,,,,,,,,3,4,52,4,,,,,,,,,,,,,,,,,,,,,1327.0934865999734,210,reward,1,0.22929380007553846,0.22929729998577386,1327.3296327000717,,,,,,,,36,B,2023-12-18_10h28.06.373,gca_avoidance_task,2022.2.4,143.8884117204982,
positions.xlsx,stimuli.xlsx,stimuli/Social2.png,stimuli/Social1.png,stimuli/Nonsocial1.png,stimuli/Nonsocial2.png,,"(-0.7, -0.5)",cs_minus_ns,,,,,0,0,0,0,,,,,,,,,3,5,53,13,,,,,,,,,,,,,,,,,,,,,1337.0027960999869,215,reward,1,0.25025929999537766,0.25026290002278984,1337.2597608000506,,,,,,,,36,B,2023-12-18_10h28.06.373,gca_avoidance_task,2022.2.4,143.8884117204982,
positions.xlsx,stimuli.xlsx,stimuli/Social2.png,stimuli/Social1.png,stimuli/Nonsocial1.png,stimuli/Nonsocial2.png,,"(0.7, -0.5)",cs_minus_ns,,,,,0,0,0,0,,,,,,,,,3,6,54,15,,,,,,,,,,,,,,,,,,,,,1346.8565681000473,220,reward,1,0.5003778000827879,0.5003960001049563,1347.3635050000157,,,,,,,,36,B,2023-12-18_10h28.06.373,gca_avoidance_task,2022.2.4,143.8884117204982,
positions.xlsx,stimuli.xlsx,stimuli/Social2.png,stimuli/Social1.png,stimuli/Nonsocial1.png,stimuli/Nonsocial2.png,,"(0.7, 0.5)",cs_plus_s,,,,,0,0,0,0,,,,,,,,,3,7,55,2,,,,,,,,,,,,,,,,,,,,,1356.5714759000111,220,none,0,,,1361.578253100044,,,,,,,,36,B,2023-12-18_10h28.06.373,gca_avoidance_task,2022.2.4,143.8884117204982,
positions.xlsx,stimuli.xlsx,stimuli/Social2.png,stimuli/Social1.png,stimuli/Nonsocial1.png,stimuli/Nonsocial2.png,,"(-0.7, -0.5)",cs_plus_s,,,,,0,0,0,0,,,,,,,,,3,8,56,1,,,,,,,,,,,,,,,,,,,,,1371.4458767999895,220,none,0,,,1376.4526438000612,,,,,,,,36,B,2023-12-18_10h28.06.373,gca_avoidance_task,2022.2.4,143.8884117204982,
positions.xlsx,stimuli.xlsx,stimuli/Social2.png,stimuli/Social1.png,stimuli/Nonsocial1.png,stimuli/Nonsocial2.png,,"(0.7, -0.5)",cs_minus_s,,,,,0,0,0,0,,,,,,,,,3,9,57,7,,,,,,,,,,,,,,,,,,,,,1386.243916700012,225,reward,1,0.5211446000030264,0.5211482000304386,1386.7716713000555,,,,,,,,36,B,2023-12-18_10h28.06.373,gca_avoidance_task,2022.2.4,143.8884117204982,
positions.xlsx,stimuli.xlsx,stimuli/Social2.png,stimuli/Social1.png,stimuli/Nonsocial1.png,stimuli/Nonsocial2.png,,"(-0.7, 0.5)",cs_plus_s,,,,,0,0,0,0,,,,,,,,,3,10,58,0,,,,,,,,,,,,,,,,,,,,,1396.250494100037,225,none,0,,,1401.2572353000287,,,,,,,,36,B,2023-12-18_10h28.06.373,gca_avoidance_task,2022.2.4,143.8884117204982,
positions.xlsx,stimuli.xlsx,stimuli/Social2.png,stimuli/Social1.png,stimuli/Nonsocial1.png,stimuli/Nonsocial2.png,,"(-0.7, 0.5)",cs_minus_ns,,,,,0,0,0,0,,,,,,,,,3,11,59,12,,,,,,,,,,,,,,,,,,,,,1410.367964199977,230,reward,1,0.5418088000733405,0.5418125999858603,1410.916582099977,,,,,,,,36,B,2023-12-18_10h28.06.373,gca_avoidance_task,2022.2.4,143.8884117204982,
positions.xlsx,stimuli.xlsx,stimuli/Social2.png,stimuli/Social1.png,stimuli/Nonsocial1.png,stimuli/Nonsocial2.png,,"(0.7, 0.5)",cs_plus_ns,,,,,0,0,0,0,,,,,,,,,3,12,60,10,,,,,,,,,,,,,,,,,,,,,1421.395323200035,230,none,0,,,1426.4089780000504,,,,,,,,36,B,2023-12-18_10h28.06.373,gca_avoidance_task,2022.2.4,143.8884117204982,
positions.xlsx,stimuli.xlsx,stimuli/Social2.png,stimuli/Social1.png,stimuli/Nonsocial1.png,stimuli/Nonsocial2.png,,"(0.7, 0.5)",cs_minus_s,,,,,0,0,0,0,,,,,,,,,3,13,61,6,,,,,,,,,,,,,,,,,,,,,1436.2072053999873,235,reward,1,0.5770941000664607,0.5840880000032485,1436.797462000046,,,,,,,,36,B,2023-12-18_10h28.06.373,gca_avoidance_task,2022.2.4,143.8884117204982,
positions.xlsx,stimuli.xlsx,stimuli/Social2.png,stimuli/Social1.png,stimuli/Nonsocial1.png,stimuli/Nonsocial2.png,,"(-0.7, 0.5)",cs_plus_ns,,,,,0,0,0,0,,,,,,,,,3,14,62,8,,,,,,,,,,,,,,,,,,,,,1445.6929655000567,235,none,0,,,1450.6997757999925,,,,,,,,36,B,2023-12-18_10h28.06.373,gca_avoidance_task,2022.2.4,143.8884117204982,
positions.xlsx,stimuli.xlsx,stimuli/Social2.png,stimuli/Social1.png,stimuli/Nonsocial1.png,stimuli/Nonsocial2.png,,"(-0.7, -0.5)",cs_minus_s,,,,,0,0,0,0,,,,,,,,,3,15,63,5,,,,,,,,,,,,,,,,,,,,,1460.6923630000092,240,reward,1,0.6949408000800759,0.6949444999918342,1461.3937393999659,,,,,,,,36,B,2023-12-18_10h28.06.373,gca_avoidance_task,2022.2.4,143.8884117204982,
positions.xlsx,stimuli.xlsx,stimuli/Social2.png,stimuli/Social1.png,stimuli/Nonsocial1.png,stimuli/Nonsocial2.png,,"(0.7, -0.5)",cs_plus_ns,,,,,0,0,0,0,,,,,,,,,4,0,64,11,,,,,,,,,,,,,,,,,,,,,1470.4558570999652,240,shock,1,0.22245909995399415,0.22246279998216778,1470.6850555000128,,,,,,,,36,B,2023-12-18_10h28.06.373,gca_avoidance_task,2022.2.4,143.8884117204982,
positions.xlsx,stimuli.xlsx,stimuli/Social2.png,stimuli/Social1.png,stimuli/Nonsocial1.png,stimuli/Nonsocial2.png,,"(-0.7, -0.5)",cs_plus_ns,,,,,0,0,0,0,,,,,,,,,4,1,65,9,,,,,,,,,,,,,,,,,,,,,1480.6637735000113,240,none,0,,,1485.6706031999784,,,,,,,,36,B,2023-12-18_10h28.06.373,gca_avoidance_task,2022.2.4,143.8884117204982,
positions.xlsx,stimuli.xlsx,stimuli/Social2.png,stimuli/Social1.png,stimuli/Nonsocial1.png,stimuli/Nonsocial2.png,,"(0.7, 0.5)",cs_minus_ns,,,,,0,0,0,0,,,,,,,,,4,2,66,14,,,,,,,,,,,,,,,,,,,,,1495.2187937999843,245,reward,1,0.6251176000805572,0.6251213999930769,1495.850783300004,,,,,,,,36,B,2023-12-18_10h28.06.373,gca_avoidance_task,2022.2.4,143.8884117204982,
positions.xlsx,stimuli.xlsx,stimuli/Social2.png,stimuli/Social1.png,stimuli/Nonsocial1.png,stimuli/Nonsocial2.png,,"(-0.7, 0.5)",cs_plus_ns,,,,,0,0,0,0,,,,,,,,,4,3,67,8,,,,,,,,,,,,,,,,,,,,,1505.0656209000153,245,none,0,,,1510.0723462000024,,,,,,,,36,B,2023-12-18_10h28.06.373,gca_avoidance_task,2022.2.4,143.8884117204982,
positions.xlsx,stimuli.xlsx,stimuli/Social2.png,stimuli/Social1.png,stimuli/Nonsocial1.png,stimuli/Nonsocial2.png,,"(0.7, -0.5)",cs_minus_ns,,,,,0,0,0,0,,,,,,,,,4,4,68,15,,,,,,,,,,,,,,,,,,,,,1519.33588290005,250,reward,1,0.5278095999965444,0.5278131999075413,1519.8706073999638,,,,,,,,36,B,2023-12-18_10h28.06.373,gca_avoidance_task,2022.2.4,143.8884117204982,
positions.xlsx,stimuli.xlsx,stimuli/Social2.png,stimuli/Social1.png,stimuli/Nonsocial1.png,stimuli/Nonsocial2.png,,"(0.7, 0.5)",cs_minus_s,,,,,0,0,0,0,,,,,,,,,4,5,69,6,,,,,,,,,,,,,,,,,,,,,1529.3702631000197,255,reward,1,0.15310850006062537,0.15311229997314513,1529.5299355000025,,,,,,,,36,B,2023-12-18_10h28.06.373,gca_avoidance_task,2022.2.4,143.8884117204982,
positions.xlsx,stimuli.xlsx,stimuli/Social2.png,stimuli/Social1.png,stimuli/Nonsocial1.png,stimuli/Nonsocial2.png,,"(0.7, 0.5)",cs_plus_ns,,,,,0,0,0,0,,,,,,,,,4,6,70,10,,,,,,,,,,,,,,,,,,,,,1538.7170755000552,255,shock,1,0.24320849997457117,0.24321210000198334,1538.9670415000292,,,,,,,,36,B,2023-12-18_10h28.06.373,gca_avoidance_task,2022.2.4,143.8884117204982,
positions.xlsx,stimuli.xlsx,stimuli/Social2.png,stimuli/Social1.png,stimuli/Nonsocial1.png,stimuli/Nonsocial2.png,,"(-0.7, -0.5)",cs_minus_ns,,,,,0,0,0,0,,,,,,,,,4,7,71,13,,,,,,,,,,,,,,,,,,,,,1548.3903005999746,260,reward,1,0.7014091999735683,0.701412900001742,1549.0986153000267,,,,,,,,36,B,2023-12-18_10h28.06.373,gca_avoidance_task,2022.2.4,143.8884117204982,
positions.xlsx,stimuli.xlsx,stimuli/Social2.png,stimuli/Social1.png,stimuli/Nonsocial1.png,stimuli/Nonsocial2.png,,"(-0.7, -0.5)",cs_plus_s,,,,,0,0,0,0,,,,,,,,,4,8,72,1,,,,,,,,,,,,,,,,,,,,,1558.3065562000265,260,none,0,,,1563.313334900071,,,,,,,,36,B,2023-12-18_10h28.06.373,gca_avoidance_task,2022.2.4,143.8884117204982,
positions.xlsx,stimuli.xlsx,stimuli/Social2.png,stimuli/Social1.png,stimuli/Nonsocial1.png,stimuli/Nonsocial2.png,,"(-0.7, 0.5)",cs_minus_ns,,,,,0,0,0,0,,,,,,,,,4,9,73,12,,,,,,,,,,,,,,,,,,,,,1573.3337657999946,265,reward,1,0.5487013000529259,0.5487046999623999,1573.8893390999874,,,,,,,,36,B,2023-12-18_10h28.06.373,gca_avoidance_task,2022.2.4,143.8884117204982,
positions.xlsx,stimuli.xlsx,stimuli/Social2.png,stimuli/Social1.png,stimuli/Nonsocial1.png,stimuli/Nonsocial2.png,,"(0.7, 0.5)",cs_plus_s,,,,,0,0,0,0,,,,,,,,,4,10,74,2,,,,,,,,,,,,,,,,,,,,,1583.1944694999838,265,none,0,,,1588.2012146000052,,,,,,,,36,B,2023-12-18_10h28.06.373,gca_avoidance_task,2022.2.4,143.8884117204982,
positions.xlsx,stimuli.xlsx,stimuli/Social2.png,stimuli/Social1.png,stimuli/Nonsocial1.png,stimuli/Nonsocial2.png,,"(-0.7, 0.5)",cs_minus_s,,,,,0,0,0,0,,,,,,,,,4,11,75,4,,,,,,,,,,,,,,,,,,,,,1598.2008454999886,270,reward,1,0.45136209996417165,0.4513657999923453,1598.6591740000295,,,,,,,,36,B,2023-12-18_10h28.06.373,gca_avoidance_task,2022.2.4,143.8884117204982,
positions.xlsx,stimuli.xlsx,stimuli/Social2.png,stimuli/Social1.png,stimuli/Nonsocial1.png,stimuli/Nonsocial2.png,,"(0.7, -0.5)",cs_plus_s,,,,,0,0,0,0,,,,,,,,,4,12,76,3,,,,,,,,,,,,,,,,,,,,,1608.908736100071,270,none,0,,,1613.9154798999662,,,,,,,,36,B,2023-12-18_10h28.06.373,gca_avoidance_task,2022.2.4,143.8884117204982,
positions.xlsx,stimuli.xlsx,stimuli/Social2.png,stimuli/Social1.png,stimuli/Nonsocial1.png,stimuli/Nonsocial2.png,,"(-0.7, 0.5)",cs_plus_s,,,,,0,0,0,0,,,,,,,,,4,13,77,0,,,,,,,,,,,,,,,,,,,,,1622.8595683999592,270,shock,1,0.1736172999953851,0.17362099990714341,1623.0331516000442,,,,,,,,36,B,2023-12-18_10h28.06.373,gca_avoidance_task,2022.2.4,143.8884117204982,
positions.xlsx,stimuli.xlsx,stimuli/Social2.png,stimuli/Social1.png,stimuli/Nonsocial1.png,stimuli/Nonsocial2.png,,"(-0.7, -0.5)",cs_minus_s,,,,,0,0,0,0,,,,,,,,,4,14,78,5,,,,,,,,,,,,,,,,,,,,,1632.7828173000598,275,reward,1,0.5284045999869704,0.528408500016667,1633.317486600019,,,,,,,,36,B,2023-12-18_10h28.06.373,gca_avoidance_task,2022.2.4,143.8884117204982,
positions.xlsx,stimuli.xlsx,stimuli/Social2.png,stimuli/Social1.png,stimuli/Nonsocial1.png,stimuli/Nonsocial2.png,,"(0.7, -0.5)",cs_minus_s,,,,,0,0,0,0,,,,,,,,,4,15,79,7,,,,,,,,,,,,,,,,,,,,,1642.9212603999767,280,reward,1,0.437846599961631,0.4378503999905661,1643.365691300016,,,,,,,,36,B,2023-12-18_10h28.06.373,gca_avoidance_task,2022.2.4,143.8884117204982,
positions.xlsx,stimuli.xlsx,stimuli/Social2.png,stimuli/Social1.png,stimuli/Nonsocial1.png,stimuli/Nonsocial2.png,cs_minus_ns,,,,,,,0,0,0,0,,,,,,,,,,,,,0,0,0,3,,,,,,,,,,,,,1659.9275968000293,7.0,10.030164399999194,,,,,,,,,4.0,7.764248499996029,,,,,,36,B,2023-12-18_10h28.06.373,gca_avoidance_task,2022.2.4,143.8884117204982,
positions.xlsx,stimuli.xlsx,stimuli/Social2.png,stimuli/Social1.png,stimuli/Nonsocial1.png,stimuli/Nonsocial2.png,cs_minus_s,,,,,,,0,0,0,0,,,,,,,,,,,,,0,1,1,2,,,,,,,,,,,,,1671.260506200022,9.0,3.0154290999053046,,,,,,,,,,,,,,,,36,B,2023-12-18_10h28.06.373,gca_avoidance_task,2022.2.4,143.8884117204982,
positions.xlsx,stimuli.xlsx,stimuli/Social2.png,stimuli/Social1.png,stimuli/Nonsocial1.png,stimuli/Nonsocial2.png,cs_plus_ns,,,,,,,0,0,0,0,,,,,,,,,,,,,0,2,2,1,,,,,,,,,,,,,1674.9131084000692,2.0,1.5837672000052407,,,,,,,,,,,,,,,,36,B,2023-12-18_10h28.06.373,gca_avoidance_task,2022.2.4,143.8884117204982,
positions.xlsx,stimuli.xlsx,stimuli/Social2.png,stimuli/Social1.png,stimuli/Nonsocial1.png,stimuli/Nonsocial2.png,cs_plus_s,,,,,,,0,0,0,0,,,,,,,,,,,,,0,3,3,0,,,,,,,,,,,,,1677.1977221000707,2.0,0.9111792000476271,,,,,,,,,,,,,,,,36,B,2023-12-18_10h28.06.373,gca_avoidance_task,2022.2.4,143.8884117204982,
positions.xlsx,stimuli.xlsx,stimuli/Social2.png,stimuli/Social1.png,stimuli/Nonsocial1.png,stimuli/Nonsocial2.png,cs_plus_ns,,,,,,,0,0,0,0,,,,,,,,,,,,,,,,,0,0,0,1,,,,,,,,,,,,,,,,,,,,,,1678.3018461000174,1682.6003047999693,12,0.07702769991010427,0.7707211999222636,36,B,2023-12-18_10h28.06.373,gca_avoidance_task,2022.2.4,143.8884117204982,
positions.xlsx,stimuli.xlsx,stimuli/Social2.png,stimuli/Social1.png,stimuli/Nonsocial1.png,stimuli/Nonsocial2.png,cs_plus_s,,,,,,,0,0,0,0,,,,,,,,,,,,,,,,,0,1,1,0,,,,,,,,,,,,,,,,,,,,,,,1697.5164567000465,9,0.013392900000326335,1.2501073000021279,36,B,2023-12-18_10h28.06.373,gca_avoidance_task,2022.2.4,143.8884117204982,
positions.xlsx,stimuli.xlsx,stimuli/Social2.png,stimuli/Social1.png,stimuli/Nonsocial1.png,stimuli/Nonsocial2.png,cs_minus_ns,,,,,,,0,0,0,0,,,,,,,,,,,,,,,,,0,2,2,3,,,,,,,,,,,,,,,,,,,,,,,1712.0714155000169,11,0.014161500032059848,2.034899099962786,36,B,2023-12-18_10h28.06.373,gca_avoidance_task,2022.2.4,143.8884117204982,
positions.xlsx,stimuli.xlsx,stimuli/Social2.png,stimuli/Social1.png,stimuli/Nonsocial1.png,stimuli/Nonsocial2.png,cs_minus_s,,,,,,,0,0,0,0,,,,,,,,,,,,,,,,,0,3,3,2,,,,,,,,,,,,,,,,,,,,,,,1727.4874131999677,9,0.01353150000795722,1.3682124000042677,36,B,2023-12-18_10h28.06.373,gca_avoidance_task,2022.2.4,143.8884117204982,
positions.xlsx,stimuli.xlsx,stimuli/Social2.png,stimuli/Social1.png,stimuli/Nonsocial1.png,stimuli/Nonsocial2.png,cs_plus_s,,,,,,,0,0,0,0,,,,,,,,,,,,,,,,,1,0,4,0,,,,,,,,,,,,,,,,,,,,,,,1742.0285492000403,10,0.013448799960315228,0.8751882000360638,36,B,2023-12-18_10h28.06.373,gca_avoidance_task,2022.2.4,143.8884117204982,
positions.xlsx,stimuli.xlsx,stimuli/Social2.png,stimuli/Social1.png,stimuli/Nonsocial1.png,stimuli/Nonsocial2.png,cs_minus_ns,,,,,,,0,0,0,0,,,,,,,,,,,,,,,,,1,1,5,3,,,,,,,,,,,,,,,,,,,,,,,1756.882123599993,8,0.014141199993900955,0.6462421000469476,36,B,2023-12-18_10h28.06.373,gca_avoidance_task,2022.2.4,143.8884117204982,
positions.xlsx,stimuli.xlsx,stimuli/Social2.png,stimuli/Social1.png,stimuli/Nonsocial1.png,stimuli/Nonsocial2.png,cs_minus_s,,,,,,,0,0,0,0,,,,,,,,,,,,,,,,,1,2,6,2,,,,,,,,,,,,,,,,,,,,,,,1771.964864199981,12,0.014069600030779839,0.5072339000180364,36,B,2023-12-18_10h28.06.373,gca_avoidance_task,2022.2.4,143.8884117204982,
positions.xlsx,stimuli.xlsx,stimuli/Social2.png,stimuli/Social1.png,stimuli/Nonsocial1.png,stimuli/Nonsocial2.png,cs_plus_ns,,,,,,,0,0,0,0,,,,,,,,,,,,,,,,,1,3,7,1,,,,,,,,,,,,,,,,,,,,,,,1787.2489561999682,9,0.014314399915747344,2.7638725999277085,36,B,2023-12-18_10h28.06.373,gca_avoidance_task,2022.2.4,143.8884117204982,
positions.xlsx,stimuli.xlsx,stimuli/Social2.png,stimuli/Social1.png,stimuli/Nonsocial1.png,stimuli/Nonsocial2.png,cs_plus_ns,,,,,,,0,0,0,0,,,,,,,,,,,,,,,,,2,0,8,1,,,,,,,,,,,,,,,,,,,,,,,1801.7970357000595,10,0.014059399953112006,0.8056728999363258,36,B,2023-12-18_10h28.06.373,gca_avoidance_task,2022.2.4,143.8884117204982,
positions.xlsx,stimuli.xlsx,stimuli/Social2.png,stimuli/Social1.png,stimuli/Nonsocial1.png,stimuli/Nonsocial2.png,cs_minus_ns,,,,,,,0,0,0,0,,,,,,,,,,,,,,,,,2,1,9,3,,,,,,,,,,,,,,,,,,,,,,,1817.1297594000353,9,0.014050700003281236,1.4030836999882013,36,B,2023-12-18_10h28.06.373,gca_avoidance_task,2022.2.4,143.8884117204982,
positions.xlsx,stimuli.xlsx,stimuli/Social2.png,stimuli/Social1.png,stimuli/Nonsocial1.png,stimuli/Nonsocial2.png,cs_minus_s,,,,,,,0,0,0,0,,,,,,,,,,,,,,,,,2,2,10,2,,,,,,,,,,,,,,,,,,,,,,,1831.9277659000363,9,0.015299899969249964,0.5702588999411091,36,B,2023-12-18_10h28.06.373,gca_avoidance_task,2022.2.4,143.8884117204982,
positions.xlsx,stimuli.xlsx,stimuli/Social2.png,stimuli/Social1.png,stimuli/Nonsocial1.png,stimuli/Nonsocial2.png,cs_plus_s,,,,,,,0,0,0,0,,,,,,,,,,,,,,,,,2,3,11,0,,,,,,,,,,,,,,,,,,,,,,,1847.302151300013,10,0.013616199954412878,1.8266871999949217,36,B,2023-12-18_10h28.06.373,gca_avoidance_task,2022.2.4,143.8884117204982,
positions.xlsx,stimuli.xlsx,stimuli/Social2.png,stimuli/Social1.png,stimuli/Nonsocial1.png,stimuli/Nonsocial2.png,cs_plus_s,,,,,,,0,0,0,0,,,,,,,,,,,,,,,,,3,0,12,0,,,,,,,,,,,,,,,,,,,,,,,1862.1626809000736,10,0.013648899970576167,0.9797051000641659,36,B,2023-12-18_10h28.06.373,gca_avoidance_task,2022.2.4,143.8884117204982,
positions.xlsx,stimuli.xlsx,stimuli/Social2.png,stimuli/Social1.png,stimuli/Nonsocial1.png,stimuli/Nonsocial2.png,cs_minus_s,,,,,,,0,0,0,0,,,,,,,,,,,,,,,,,3,1,13,2,,,,,,,,,,,,,,,,,,,,,,,1876.9676531000296,8,0.013410600018687546,0.8752333999145776,36,B,2023-12-18_10h28.06.373,gca_avoidance_task,2022.2.4,143.8884117204982,
positions.xlsx,stimuli.xlsx,stimuli/Social2.png,stimuli/Social1.png,stimuli/Nonsocial1.png,stimuli/Nonsocial2.png,cs_plus_ns,,,,,,,0,0,0,0,,,,,,,,,,,,,,,,,3,2,14,1,,,,,,,,,,,,,,,,,,,,,,,1891.730957300053,11,0.0628664999967441,1.2919077000115067,36,B,2023-12-18_10h28.06.373,gca_avoidance_task,2022.2.4,143.8884117204982,
positions.xlsx,stimuli.xlsx,stimuli/Social2.png,stimuli/Social1.png,stimuli/Nonsocial1.png,stimuli/Nonsocial2.png,cs_minus_ns,,,,,,,0,0,0,0,,,,,,,,,,,,,,,,,3,3,15,3,,,,,,,,,,,,,,,,,,,,,,,1906.508155300049,10,0.042118099983781576,1.2295618000207469,36,B,2023-12-18_10h28.06.373,gca_avoidance_task,2022.2.4,143.8884117204982,
positions.xlsx,stimuli.xlsx,stimuli/Social2.png,stimuli/Social1.png,stimuli/Nonsocial1.png,stimuli/Nonsocial2.png,cs_plus_ns,,,,,,,0,0,0,0,,,,,,,,,,,,,,,,,4,0,16,1,,,,,,,,,,,,,,,,,,,,,,,1921.3964972000103,11,0.014606100041419268,0.5833804000867531,36,B,2023-12-18_10h28.06.373,gca_avoidance_task,2022.2.4,143.8884117204982,
positions.xlsx,stimuli.xlsx,stimuli/Social2.png,stimuli/Social1.png,stimuli/Nonsocial1.png,stimuli/Nonsocial2.png,cs_minus_s,,,,,,,0,0,0,0,,,,,,,,,,,,,,,,,4,1,17,2,,,,,,,,,,,,,,,,,,,,,,,1936.465303300065,10,0.013769099954515696,0.43781969998963177,36,B,2023-12-18_10h28.06.373,gca_avoidance_task,2022.2.4,143.8884117204982,
positions.xlsx,stimuli.xlsx,stimuli/Social2.png,stimuli/Social1.png,stimuli/Nonsocial1.png,stimuli/Nonsocial2.png,cs_plus_s,,,,,,,0,0,0,0,,,,,,,,,,,,,,,,,4,2,18,0,,,,,,,,,,,,,,,,,,,,,,,1951.2702860999852,9,0.013996000052429736,0.5073333000764251,36,B,2023-12-18_10h28.06.373,gca_avoidance_task,2022.2.4,143.8884117204982,
positions.xlsx,stimuli.xlsx,stimuli/Social2.png,stimuli/Social1.png,stimuli/Nonsocial1.png,stimuli/Nonsocial2.png,cs_minus_ns,,,,,,,0,0,0,0,,,,,,,,,,,,,,,,,4,3,19,3,,,,,,,,,,,,,,,,,,,,,,,1966.2557950000046,10,0.013823800021782517,1.173811399959959,36,B,2023-12-18_10h28.06.373,gca_avoidance_task,2022.2.4,143.8884117204982,
positions.xlsx,stimuli.xlsx,stimuli/Social2.png,stimuli/Social1.png,stimuli/Nonsocial1.png,stimuli/Nonsocial2.png,cs_minus_s,,,,,,,0,0,0,0,,,,,,,,,,,,,,,,,5,0,20,2,,,,,,,,,,,,,,,,,,,,,,,1980.9010803999845,14,0.013491499936208129,0.3750987999374047,36,B,2023-12-18_10h28.06.373,gca_avoidance_task,2022.2.4,143.8884117204982,
positions.xlsx,stimuli.xlsx,stimuli/Social2.png,stimuli/Social1.png,stimuli/Nonsocial1.png,stimuli/Nonsocial2.png,cs_minus_ns,,,,,,,0,0,0,0,,,,,,,,,,,,,,,,,5,1,21,3,,,,,,,,,,,,,,,,,,,,,,,1996.0254621000495,11,0.014359200024046004,0.04877280001528561,36,B,2023-12-18_10h28.06.373,gca_avoidance_task,2022.2.4,143.8884117204982,
positions.xlsx,stimuli.xlsx,stimuli/Social2.png,stimuli/Social1.png,stimuli/Nonsocial1.png,stimuli/Nonsocial2.png,cs_plus_ns,,,,,,,0,0,0,0,,,,,,,,,,,,,,,,,5,2,22,1,,,,,,,,,,,,,,,,,,,,,,,2011.413751999964,11,0.1670293000061065,0.7295116001041606,36,B,2023-12-18_10h28.06.373,gca_avoidance_task,2022.2.4,143.8884117204982,
positions.xlsx,stimuli.xlsx,stimuli/Social2.png,stimuli/Social1.png,stimuli/Nonsocial1.png,stimuli/Nonsocial2.png,cs_plus_s,,,,,,,0,0,0,0,,,,,,,,,,,,,,,,,5,3,23,0,,,,,,,,,,,,,,,,,,,,,,,2026.482603500015,10,0.01364989997819066,0.5904873000690714,36,B,2023-12-18_10h28.06.373,gca_avoidance_task,2022.2.4,143.8884117204982,
positions.xlsx,stimuli.xlsx,stimuli/Social2.png,stimuli/Social1.png,stimuli/Nonsocial1.png,stimuli/Nonsocial2.png,cs_plus_ns,,,,,,,0,0,0,0,,,,,,,,,,,,,,,,,6,0,24,1,,,,,,,,,,,,,,,,,,,,,,,2041.7250687000342,12,0.014596999972127378,0.25711339991539717,36,B,2023-12-18_10h28.06.373,gca_avoidance_task,2022.2.4,143.8884117204982,
positions.xlsx,stimuli.xlsx,stimuli/Social2.png,stimuli/Social1.png,stimuli/Nonsocial1.png,stimuli/Nonsocial2.png,cs_minus_ns,,,,,,,0,0,0,0,,,,,,,,,,,,,,,,,6,1,25,3,,,,,,,,,,,,,,,,,,,,,,,2056.655022299965,10,0.013947600033134222,0.38919709995388985,36,B,2023-12-18_10h28.06.373,gca_avoidance_task,2022.2.4,143.8884117204982,
positions.xlsx,stimuli.xlsx,stimuli/Social2.png,stimuli/Social1.png,stimuli/Nonsocial1.png,stimuli/Nonsocial2.png,cs_minus_s,,,,,,,0,0,0,0,,,,,,,,,,,,,,,,,6,2,26,2,,,,,,,,,,,,,,,,,,,,,,,2071.4322218999732,8,0.013047800050117075,0.05597320001106709,36,B,2023-12-18_10h28.06.373,gca_avoidance_task,2022.2.4,143.8884117204982,
positions.xlsx,stimuli.xlsx,stimuli/Social2.png,stimuli/Social1.png,stimuli/Nonsocial1.png,stimuli/Nonsocial2.png,cs_plus_s,,,,,,,0,0,0,0,,,,,,,,,,,,,,,,,6,3,27,0,,,,,,,,,,,,,,,,,,,,,,,2086.813566499972,11,0.0837457999587059,0.5769882999593392,36,B,2023-12-18_10h28.06.373,gca_avoidance_task,2022.2.4,143.8884117204982,
positions.xlsx,stimuli.xlsx,stimuli/Social2.png,stimuli/Social1.png,stimuli/Nonsocial1.png,stimuli/Nonsocial2.png,cs_plus_ns,,,,,,,0,0,0,0,,,,,,,,,,,,,,,,,7,0,28,1,,,,,,,,,,,,,,,,,,,,,,,2101.500508700032,10,0.014249900006689131,0.34049670002423227,36,B,2023-12-18_10h28.06.373,gca_avoidance_task,2022.2.4,143.8884117204982,
positions.xlsx,stimuli.xlsx,stimuli/Social2.png,stimuli/Social1.png,stimuli/Nonsocial1.png,stimuli/Nonsocial2.png,cs_minus_ns,,,,,,,0,0,0,0,,,,,,,,,,,,,,,,,7,1,29,3,,,,,,,,,,,,,,,,,,,,,,,2116.7429494999815,11,0.014370499993674457,1.153105100034736,36,B,2023-12-18_10h28.06.373,gca_avoidance_task,2022.2.4,143.8884117204982,
positions.xlsx,stimuli.xlsx,stimuli/Social2.png,stimuli/Social1.png,stimuli/Nonsocial1.png,stimuli/Nonsocial2.png,cs_minus_s,,,,,,,0,0,0,0,,,,,,,,,,,,,,,,,7,2,30,2,,,,,,,,,,,,,,,,,,,,,,,2131.6381985000335,12,0.013396100024692714,0.5081327999942005,36,B,2023-12-18_10h28.06.373,gca_avoidance_task,2022.2.4,143.8884117204982,
positions.xlsx,stimuli.xlsx,stimuli/Social2.png,stimuli/Social1.png,stimuli/Nonsocial1.png,stimuli/Nonsocial2.png,cs_plus_s,,,,,,,0,0,0,0,,,,,,,,,,,,,,,,,7,3,31,0,,,,,,,,,,,,,,,,,,,,,,,2147.102879400016,7,0.01343240006826818,0.1042250000173226,36,B,2023-12-18_10h28.06.373,gca_avoidance_task,2022.2.4,143.8884117204982,
positions.xlsx,stimuli.xlsx,stimuli/Social2.png,stimuli/Social1.png,stimuli/Nonsocial1.png,stimuli/Nonsocial2.png,cs_minus_s,,,,,,,0,0,0,0,,,,,,,,,,,,,,,,,8,0,32,2,,,,,,,,,,,,,,,,,,,,,,,2162.4078366999747,3,0.013647000072523952,5.1042019000742584,36,B,2023-12-18_10h28.06.373,gca_avoidance_task,2022.2.4,143.8884117204982,
positions.xlsx,stimuli.xlsx,stimuli/Social2.png,stimuli/Social1.png,stimuli/Nonsocial1.png,stimuli/Nonsocial2.png,cs_plus_ns,,,,,,,0,0,0,0,,,,,,,,,,,,,,,,,8,1,33,1,,,,,,,,,,,,,,,,,,,,,,,2177.2266901000403,10,0.09759689995553344,0.8894905999768525,36,B,2023-12-18_10h28.06.373,gca_avoidance_task,2022.2.4,143.8884117204982,
positions.xlsx,stimuli.xlsx,stimuli/Social2.png,stimuli/Social1.png,stimuli/Nonsocial1.png,stimuli/Nonsocial2.png,cs_minus_ns,,,,,,,0,0,0,0,,,,,,,,,,,,,,,,,8,2,34,3,,,,,,,,,,,,,,,,,,,,,,,2192.608036400052,8,0.01499379996675998,0.021307199960574508,36,B,2023-12-18_10h28.06.373,gca_avoidance_task,2022.2.4,143.8884117204982,
positions.xlsx,stimuli.xlsx,stimuli/Social2.png,stimuli/Social1.png,stimuli/Nonsocial1.png,stimuli/Nonsocial2.png,cs_plus_s,,,,,,,0,0,0,0,,,,,,,,,,,,,,,,,8,3,35,0,,,,,,,,,,,,,,,,,,,,,,,2207.2949593999656,12,0.01363939989823848,0.9378584999358281,36,B,2023-12-18_10h28.06.373,gca_avoidance_task,2022.2.4,143.8884117204982,
positions.xlsx,stimuli.xlsx,stimuli/Social2.png,stimuli/Social1.png,stimuli/Nonsocial1.png,stimuli/Nonsocial2.png,cs_plus_s,,,,,,,0,0,0,0,,,,,,,,,,,,,,,,,9,0,36,0,,,,,,,,,,,,,,,,,,,,,,,2222.016625600052,11,0.01427860010880977,0.7294343000976369,36,B,2023-12-18_10h28.06.373,gca_avoidance_task,2022.2.4,143.8884117204982,
positions.xlsx,stimuli.xlsx,stimuli/Social2.png,stimuli/Social1.png,stimuli/Nonsocial1.png,stimuli/Nonsocial2.png,cs_minus_s,,,,,,,0,0,0,0,,,,,,,,,,,,,,,,,9,1,37,2,,,,,,,,,,,,,,,,,,,,,,,2236.918770499993,9,0.013348400010727346,0.5491277000401169,36,B,2023-12-18_10h28.06.373,gca_avoidance_task,2022.2.4,143.8884117204982,
positions.xlsx,stimuli.xlsx,stimuli/Social2.png,stimuli/Social1.png,stimuli/Nonsocial1.png,stimuli/Nonsocial2.png,cs_plus_ns,,,,,,,0,0,0,0,,,,,,,,,,,,,,,,,9,2,38,1,,,,,,,,,,,,,,,,,,,,,,,2251.9599101999775,11,0.06983409996610135,2.8197066000429913,36,B,2023-12-18_10h28.06.373,gca_avoidance_task,2022.2.4,143.8884117204982,
positions.xlsx,stimuli.xlsx,stimuli/Social2.png,stimuli/Social1.png,stimuli/Nonsocial1.png,stimuli/Nonsocial2.png,cs_minus_ns,,,,,,,0,0,0,0,,,,,,,,,,,,,,,,,9,3,39,3,,,,,,,,,,,,,,,,,,,,,,,2266.737086600042,12,0.09759119991213083,1.923916499945335,36,B,2023-12-18_10h28.06.373,gca_avoidance_task,2022.2.4,143.8884117204982,
positions.xlsx,stimuli.xlsx,stimuli/Social2.png,stimuli/Social1.png,stimuli/Nonsocial1.png,stimuli/Nonsocial2.png,cs_minus_ns,,,,,,,0,0,0,0,,,,,,,,,,,,,,,,,,,,,0,0,0,3,,,,,2281.187887200038,5.0,8.674389200052246,,,,,,,,,,,,,,,,36,B,2023-12-18_10h28.06.373,gca_avoidance_task,2022.2.4,143.8884117204982,
positions.xlsx,stimuli.xlsx,stimuli/Social2.png,stimuli/Social1.png,stimuli/Nonsocial1.png,stimuli/Nonsocial2.png,cs_plus_s,,,,,,,0,0,0,0,,,,,,,,,,,,,,,,,,,,,0,1,1,0,,,,,2291.2152563000564,5.0,2.8890997999114916,,,,,,,,,,,,,,,,36,B,2023-12-18_10h28.06.373,gca_avoidance_task,2022.2.4,143.8884117204982,
positions.xlsx,stimuli.xlsx,stimuli/Social2.png,stimuli/Social1.png,stimuli/Nonsocial1.png,stimuli/Nonsocial2.png,cs_plus_ns,,,,,,,0,0,0,0,,,,,,,,,,,,,,,,,,,,,0,2,2,1,,,,,2294.6665225999895,6.0,2.534637499949895,,,,,,,,,,,,,,,,36,B,2023-12-18_10h28.06.373,gca_avoidance_task,2022.2.4,143.8884117204982,
positions.xlsx,stimuli.xlsx,stimuli/Social2.png,stimuli/Social1.png,stimuli/Nonsocial1.png,stimuli/Nonsocial2.png,cs_minus_s,,,,,,,0,0,0,0,,,,,,,,,,,,,,,,,,,,,0,3,3,2,,,,,2297.770591599983,8.0,2.0071648999582976,,,,,,,,,,,,,,,,36,B,2023-12-18_10h28.06.373,gca_avoidance_task,2022.2.4,143.8884117204982,
