posFile,stimFile,testFile,test1,test2,cs_neg_s,cs_pos_s,cs_neg_ns,cs_pos_ns,cs_neg_s_new,cs_pos_s_new,cs_neg_ns_new,cs_pos_ns_new,position1,stim1,position2,stim2,blocks.thisRepN,blocks.thisTrialN,blocks.thisN,blocks.thisIndex,learning_trials.thisRepN,learning_trials.thisTrialN,learning_trials.thisN,learning_trials.thisIndex,trials.thisRepN,trials.thisTrialN,trials.thisN,trials.thisIndex,textStart.started,key.started,key.keys,key.rt,correctness,textStartTask.started,participant,group,date,expName,psychopyVersion,frameRate,
positions.xlsx,stimuli.xlsx,test.xlsx,stimuli/Test1.png,stimuli/Test2.png,stimuli/Social4.png,stimuli/Social3.png,stimuli/Nonsocial4.png,stimuli/Nonsocial3.png,stimuli/Social2.png,stimuli/Social1.png,stimuli/Nonsocial2.png,stimuli/Nonsocial1.png,"(-0.7, -0.5)",test1,"(0.7, -0.5)",test1,0,0,0,0,0,0,0,3,,,,,12.069887599907815,41.57560079963878,ä,1.4739334005862474,correct,,9,D,2024-04-19_08h56.46.756,gca_discrimination2,2022.2.4,143.92216672849503,
positions.xlsx,stimuli.xlsx,test.xlsx,stimuli/Test1.png,stimuli/Test2.png,stimuli/Social4.png,stimuli/Social3.png,stimuli/Nonsocial4.png,stimuli/Nonsocial3.png,stimuli/Social2.png,stimuli/Social1.png,stimuli/Nonsocial2.png,stimuli/Nonsocial1.png,"(-0.7, 0.5)",test1,"(-0.7, -0.5)",test2,0,0,0,0,0,1,1,2,,,,,,47.415691199712455,l,0.37824750039726496,correct,,9,D,2024-04-19_08h56.46.756,gca_discrimination2,2022.2.4,143.92216672849503,
positions.xlsx,stimuli.xlsx,test.xlsx,stimuli/Test1.png,stimuli/Test2.png,stimuli/Social4.png,stimuli/Social3.png,stimuli/Nonsocial4.png,stimuli/Nonsocial3.png,stimuli/Social2.png,stimuli/Social1.png,stimuli/Nonsocial2.png,stimuli/Nonsocial1.png,"(-0.7, -0.5)",test1,"(0.7, 0.5)",test2,0,0,0,0,0,2,2,1,,,,,,51.74188470002264,l,0.35573550034314394,correct,,9,D,2024-04-19_08h56.46.756,gca_discrimination2,2022.2.4,143.92216672849503,
positions.xlsx,stimuli.xlsx,test.xlsx,stimuli/Test1.png,stimuli/Test2.png,stimuli/Social4.png,stimuli/Social3.png,stimuli/Nonsocial4.png,stimuli/Nonsocial3.png,stimuli/Social2.png,stimuli/Social1.png,stimuli/Nonsocial2.png,stimuli/Nonsocial1.png,"(-0.7, 0.5)",test2,"(0.7, 0.5)",test1,0,0,0,0,0,3,3,5,,,,,,56.11672509973869,l,0.5077639003284276,correct,,9,D,2024-04-19_08h56.46.756,gca_discrimination2,2022.2.4,143.92216672849503,
positions.xlsx,stimuli.xlsx,test.xlsx,stimuli/Test1.png,stimuli/Test2.png,stimuli/Social4.png,stimuli/Social3.png,stimuli/Nonsocial4.png,stimuli/Nonsocial3.png,stimuli/Social2.png,stimuli/Social1.png,stimuli/Nonsocial2.png,stimuli/Nonsocial1.png,"(0.7, -0.5)",test1,"(-0.7, -0.5)",test1,0,0,0,0,0,4,4,7,,,,,,61.01233349973336,ä,0.5885140006430447,correct,,9,D,2024-04-19_08h56.46.756,gca_discrimination2,2022.2.4,143.92216672849503,
positions.xlsx,stimuli.xlsx,test.xlsx,stimuli/Test1.png,stimuli/Test2.png,stimuli/Social4.png,stimuli/Social3.png,stimuli/Nonsocial4.png,stimuli/Nonsocial3.png,stimuli/Social2.png,stimuli/Social1.png,stimuli/Nonsocial2.png,stimuli/Nonsocial1.png,"(-0.7, 0.5)",test1,"(0.7, 0.5)",test1,0,0,0,0,0,5,5,6,,,,,,66.13014899985865,ä,1.2703941003419459,correct,,9,D,2024-04-19_08h56.46.756,gca_discrimination2,2022.2.4,143.92216672849503,
positions.xlsx,stimuli.xlsx,test.xlsx,stimuli/Test1.png,stimuli/Test2.png,stimuli/Social4.png,stimuli/Social3.png,stimuli/Nonsocial4.png,stimuli/Nonsocial3.png,stimuli/Social2.png,stimuli/Social1.png,stimuli/Nonsocial2.png,stimuli/Nonsocial1.png,"(0.7, 0.5)",test1,"(0.7, -0.5)",test2,0,0,0,0,0,6,6,0,,,,,,71.52573229977861,l,0.38672460010275245,correct,,9,D,2024-04-19_08h56.46.756,gca_discrimination2,2022.2.4,143.92216672849503,
positions.xlsx,stimuli.xlsx,test.xlsx,stimuli/Test1.png,stimuli/Test2.png,stimuli/Social4.png,stimuli/Social3.png,stimuli/Nonsocial4.png,stimuli/Nonsocial3.png,stimuli/Social2.png,stimuli/Social1.png,stimuli/Nonsocial2.png,stimuli/Nonsocial1.png,"(0.7, 0.5)",test2,"(-0.7, -0.5)",test2,0,0,0,0,0,7,7,9,,,,,,75.92143339989707,ä,0.7034459002315998,correct,,9,D,2024-04-19_08h56.46.756,gca_discrimination2,2022.2.4,143.92216672849503,
positions.xlsx,stimuli.xlsx,test.xlsx,stimuli/Test1.png,stimuli/Test2.png,stimuli/Social4.png,stimuli/Social3.png,stimuli/Nonsocial4.png,stimuli/Nonsocial3.png,stimuli/Social2.png,stimuli/Social1.png,stimuli/Nonsocial2.png,stimuli/Nonsocial1.png,"(-0.7, 0.5)",test2,"(-0.7, -0.5)",test2,0,0,0,0,0,8,8,4,,,,,,80.82401879969984,ä,0.568845100235194,correct,,9,D,2024-04-19_08h56.46.756,gca_discrimination2,2022.2.4,143.92216672849503,
positions.xlsx,stimuli.xlsx,test.xlsx,stimuli/Test1.png,stimuli/Test2.png,stimuli/Social4.png,stimuli/Social3.png,stimuli/Nonsocial4.png,stimuli/Nonsocial3.png,stimuli/Social2.png,stimuli/Social1.png,stimuli/Nonsocial2.png,stimuli/Nonsocial1.png,"(0.7, -0.5)",test1,"(-0.7, -0.5)",test1,0,0,0,0,0,9,9,8,,,,,,85.85850849980488,ä,0.5100692007690668,correct,,9,D,2024-04-19_08h56.46.756,gca_discrimination2,2022.2.4,143.92216672849503,
positions.xlsx,stimuli.xlsx,test.xlsx,stimuli/Test1.png,stimuli/Test2.png,stimuli/Social4.png,stimuli/Social3.png,stimuli/Nonsocial4.png,stimuli/Nonsocial3.png,stimuli/Social2.png,stimuli/Social1.png,stimuli/Nonsocial2.png,stimuli/Nonsocial1.png,"(0.7, 0.5)",cs_neg_ns,"(-0.7, 0.5)",cs_pos_ns_new,0,0,0,0,,,,,0,0,0,45,,99.74682409968227,l,1.3994543002918363,correct,88.46257079998031,9,D,2024-04-19_08h56.46.756,gca_discrimination2,2022.2.4,143.92216672849503,
positions.xlsx,stimuli.xlsx,test.xlsx,stimuli/Test1.png,stimuli/Test2.png,stimuli/Social4.png,stimuli/Social3.png,stimuli/Nonsocial4.png,stimuli/Nonsocial3.png,stimuli/Social2.png,stimuli/Social1.png,stimuli/Nonsocial2.png,stimuli/Nonsocial1.png,"(0.7, 0.5)",cs_neg_ns_new,"(0.7, -0.5)",cs_pos_ns,0,0,0,0,,,,,0,1,1,43,,103.02444339962676,ä,0.8565186001360416,wrong,,9,D,2024-04-19_08h56.46.756,gca_discrimination2,2022.2.4,143.92216672849503,
positions.xlsx,stimuli.xlsx,test.xlsx,stimuli/Test1.png,stimuli/Test2.png,stimuli/Social4.png,stimuli/Social3.png,stimuli/Nonsocial4.png,stimuli/Nonsocial3.png,stimuli/Social2.png,stimuli/Social1.png,stimuli/Nonsocial2.png,stimuli/Nonsocial1.png,"(-0.7, 0.5)",cs_neg_s,"(0.7, -0.5)",cs_neg_s_new,0,0,0,0,,,,,0,2,2,20,,106.47570069972426,l,1.3088633003644645,correct,,9,D,2024-04-19_08h56.46.756,gca_discrimination2,2022.2.4,143.92216672849503,
positions.xlsx,stimuli.xlsx,test.xlsx,stimuli/Test1.png,stimuli/Test2.png,stimuli/Social4.png,stimuli/Social3.png,stimuli/Nonsocial4.png,stimuli/Nonsocial3.png,stimuli/Social2.png,stimuli/Social1.png,stimuli/Nonsocial2.png,stimuli/Nonsocial1.png,"(-0.7, 0.5)",cs_neg_ns,"(0.7, 0.5)",cs_neg_ns,0,0,0,0,,,,,0,3,3,79,,110.4061068999581,ä,1.643017700407654,correct,,9,D,2024-04-19_08h56.46.756,gca_discrimination2,2022.2.4,143.92216672849503,
positions.xlsx,stimuli.xlsx,test.xlsx,stimuli/Test1.png,stimuli/Test2.png,stimuli/Social4.png,stimuli/Social3.png,stimuli/Nonsocial4.png,stimuli/Nonsocial3.png,stimuli/Social2.png,stimuli/Social1.png,stimuli/Nonsocial2.png,stimuli/Nonsocial1.png,"(0.7, 0.5)",cs_neg_ns_new,"(-0.7, -0.5)",cs_neg_ns,0,0,0,0,,,,,0,4,4,40,,114.8364514997229,ä,0.5487541006878018,wrong,,9,D,2024-04-19_08h56.46.756,gca_discrimination2,2022.2.4,143.92216672849503,
positions.xlsx,stimuli.xlsx,test.xlsx,stimuli/Test1.png,stimuli/Test2.png,stimuli/Social4.png,stimuli/Social3.png,stimuli/Nonsocial4.png,stimuli/Nonsocial3.png,stimuli/Social2.png,stimuli/Social1.png,stimuli/Nonsocial2.png,stimuli/Nonsocial1.png,"(-0.7, 0.5)",cs_neg_ns_new,"(0.7, -0.5)",cs_neg_ns_new,0,0,0,0,,,,,0,5,5,75,,117.8155251997523,l,1.0493743000552058,wrong,,9,D,2024-04-19_08h56.46.756,gca_discrimination2,2022.2.4,143.92216672849503,
positions.xlsx,stimuli.xlsx,test.xlsx,stimuli/Test1.png,stimuli/Test2.png,stimuli/Social4.png,stimuli/Social3.png,stimuli/Nonsocial4.png,stimuli/Nonsocial3.png,stimuli/Social2.png,stimuli/Social1.png,stimuli/Nonsocial2.png,stimuli/Nonsocial1.png,"(0.7, 0.5)",cs_pos_ns_new,"(0.7, -0.5)",cs_pos_ns_new,0,0,0,0,,,,,0,6,6,88,,121.46121370000765,ä,0.6271392004564404,correct,,9,D,2024-04-19_08h56.46.756,gca_discrimination2,2022.2.4,143.92216672849503,
positions.xlsx,stimuli.xlsx,test.xlsx,stimuli/Test1.png,stimuli/Test2.png,stimuli/Social4.png,stimuli/Social3.png,stimuli/Nonsocial4.png,stimuli/Nonsocial3.png,stimuli/Social2.png,stimuli/Social1.png,stimuli/Nonsocial2.png,stimuli/Nonsocial1.png,"(0.7, 0.5)",cs_pos_ns_new,"(-0.7, 0.5)",cs_pos_ns,0,0,0,0,,,,,0,7,7,33,,124.68329299986362,ä,1.1498392005451024,wrong,,9,D,2024-04-19_08h56.46.756,gca_discrimination2,2022.2.4,143.92216672849503,
positions.xlsx,stimuli.xlsx,test.xlsx,stimuli/Test1.png,stimuli/Test2.png,stimuli/Social4.png,stimuli/Social3.png,stimuli/Nonsocial4.png,stimuli/Nonsocial3.png,stimuli/Social2.png,stimuli/Social1.png,stimuli/Nonsocial2.png,stimuli/Nonsocial1.png,"(-0.7, 0.5)",cs_pos_ns,"(0.7, 0.5)",cs_pos_ns,0,0,0,0,,,,,0,8,8,93,,128.30122260004282,ä,0.4274809006601572,correct,,9,D,2024-04-19_08h56.46.756,gca_discrimination2,2022.2.4,143.92216672849503,
positions.xlsx,stimuli.xlsx,test.xlsx,stimuli/Test1.png,stimuli/Test2.png,stimuli/Social4.png,stimuli/Social3.png,stimuli/Nonsocial4.png,stimuli/Nonsocial3.png,stimuli/Social2.png,stimuli/Social1.png,stimuli/Nonsocial2.png,stimuli/Nonsocial1.png,"(0.7, 0.5)",cs_neg_ns_new,"(0.7, -0.5)",cs_neg_ns,0,0,0,0,,,,,0,9,9,32,,131.51637139962986,l,0.9730470003560185,correct,,9,D,2024-04-19_08h56.46.756,gca_discrimination2,2022.2.4,143.92216672849503,
positions.xlsx,stimuli.xlsx,test.xlsx,stimuli/Test1.png,stimuli/Test2.png,stimuli/Social4.png,stimuli/Social3.png,stimuli/Nonsocial4.png,stimuli/Nonsocial3.png,stimuli/Social2.png,stimuli/Social1.png,stimuli/Nonsocial2.png,stimuli/Nonsocial1.png,"(-0.7, -0.5)",cs_pos_s_new,"(0.7, 0.5)",cs_pos_s_new,0,0,0,0,,,,,0,10,10,50,,134.38431139988825,l,0.8163864002563059,wrong,,9,D,2024-04-19_08h56.46.756,gca_discrimination2,2022.2.4,143.92216672849503,
positions.xlsx,stimuli.xlsx,test.xlsx,stimuli/Test1.png,stimuli/Test2.png,stimuli/Social4.png,stimuli/Social3.png,stimuli/Nonsocial4.png,stimuli/Nonsocial3.png,stimuli/Social2.png,stimuli/Social1.png,stimuli/Nonsocial2.png,stimuli/Nonsocial1.png,"(0.7, -0.5)",cs_pos_s_new,"(0.7, 0.5)",cs_neg_s,0,0,0,0,,,,,0,11,11,21,,137.59938639961183,l,0.4099322003312409,correct,,9,D,2024-04-19_08h56.46.756,gca_discrimination2,2022.2.4,143.92216672849503,
positions.xlsx,stimuli.xlsx,test.xlsx,stimuli/Test1.png,stimuli/Test2.png,stimuli/Social4.png,stimuli/Social3.png,stimuli/Nonsocial4.png,stimuli/Nonsocial3.png,stimuli/Social2.png,stimuli/Social1.png,stimuli/Nonsocial2.png,stimuli/Nonsocial1.png,"(0.7, 0.5)",cs_neg_ns,"(0.7, -0.5)",cs_neg_ns,0,0,0,0,,,,,0,12,12,80,,140.19655840005726,ä,0.8695384003221989,correct,,9,D,2024-04-19_08h56.46.756,gca_discrimination2,2022.2.4,143.92216672849503,
positions.xlsx,stimuli.xlsx,test.xlsx,stimuli/Test1.png,stimuli/Test2.png,stimuli/Social4.png,stimuli/Social3.png,stimuli/Nonsocial4.png,stimuli/Nonsocial3.png,stimuli/Social2.png,stimuli/Social1.png,stimuli/Nonsocial2.png,stimuli/Nonsocial1.png,"(-0.7, 0.5)",cs_pos_s_new,"(0.7, 0.5)",cs_pos_s_new,0,0,0,0,,,,,0,13,13,57,,143.7172562996857,ä,0.7554675005376339,correct,,9,D,2024-04-19_08h56.46.756,gca_discrimination2,2022.2.4,143.92216672849503,
positions.xlsx,stimuli.xlsx,test.xlsx,stimuli/Test1.png,stimuli/Test2.png,stimuli/Social4.png,stimuli/Social3.png,stimuli/Nonsocial4.png,stimuli/Nonsocial3.png,stimuli/Social2.png,stimuli/Social1.png,stimuli/Nonsocial2.png,stimuli/Nonsocial1.png,"(-0.7, -0.5)",cs_neg_ns,"(0.7, -0.5)",cs_neg_ns,0,0,0,0,,,,,0,14,14,87,,147.1267959997058,ä,0.6657815002836287,correct,,9,D,2024-04-19_08h56.46.756,gca_discrimination2,2022.2.4,143.92216672849503,
positions.xlsx,stimuli.xlsx,test.xlsx,stimuli/Test1.png,stimuli/Test2.png,stimuli/Social4.png,stimuli/Social3.png,stimuli/Nonsocial4.png,stimuli/Nonsocial3.png,stimuli/Social2.png,stimuli/Social1.png,stimuli/Nonsocial2.png,stimuli/Nonsocial1.png,"(-0.7, 0.5)",cs_pos_s,"(0.7, 0.5)",cs_pos_s_new,0,0,0,0,,,,,0,15,15,23,,150.27253539999947,l,0.6879293001256883,correct,,9,D,2024-04-19_08h56.46.756,gca_discrimination2,2022.2.4,143.92216672849503,
positions.xlsx,stimuli.xlsx,test.xlsx,stimuli/Test1.png,stimuli/Test2.png,stimuli/Social4.png,stimuli/Social3.png,stimuli/Nonsocial4.png,stimuli/Nonsocial3.png,stimuli/Social2.png,stimuli/Social1.png,stimuli/Nonsocial2.png,stimuli/Nonsocial1.png,"(0.7, 0.5)",cs_neg_s_new,"(-0.7, 0.5)",cs_neg_s,0,0,0,0,,,,,0,16,16,15,,153.00154769979417,l,0.623730500228703,correct,,9,D,2024-04-19_08h56.46.756,gca_discrimination2,2022.2.4,143.92216672849503,
positions.xlsx,stimuli.xlsx,test.xlsx,stimuli/Test1.png,stimuli/Test2.png,stimuli/Social4.png,stimuli/Social3.png,stimuli/Nonsocial4.png,stimuli/Nonsocial3.png,stimuli/Social2.png,stimuli/Social1.png,stimuli/Nonsocial2.png,stimuli/Nonsocial1.png,"(0.7, 0.5)",cs_neg_s,"(-0.7, 0.5)",cs_neg_s,0,0,0,0,,,,,0,17,17,59,,156.32090369984508,ä,0.4401409002020955,correct,,9,D,2024-04-19_08h56.46.756,gca_discrimination2,2022.2.4,143.92216672849503,
positions.xlsx,stimuli.xlsx,test.xlsx,stimuli/Test1.png,stimuli/Test2.png,stimuli/Social4.png,stimuli/Social3.png,stimuli/Nonsocial4.png,stimuli/Nonsocial3.png,stimuli/Social2.png,stimuli/Social1.png,stimuli/Nonsocial2.png,stimuli/Nonsocial1.png,"(0.7, 0.5)",cs_neg_ns_new,"(-0.7, 0.5)",cs_pos_ns,0,0,0,0,,,,,0,18,18,46,,158.68191089993343,ä,0.7753515006043017,wrong,,9,D,2024-04-19_08h56.46.756,gca_discrimination2,2022.2.4,143.92216672849503,
positions.xlsx,stimuli.xlsx,test.xlsx,stimuli/Test1.png,stimuli/Test2.png,stimuli/Social4.png,stimuli/Social3.png,stimuli/Nonsocial4.png,stimuli/Nonsocial3.png,stimuli/Social2.png,stimuli/Social1.png,stimuli/Nonsocial2.png,stimuli/Nonsocial1.png,"(-0.7, -0.5)",cs_pos_s_new,"(-0.7, 0.5)",cs_pos_s_new,0,0,0,0,,,,,0,19,19,68,,162.258154399693,ä,1.6154889003373682,correct,,9,D,2024-04-19_08h56.46.756,gca_discrimination2,2022.2.4,143.92216672849503,
positions.xlsx,stimuli.xlsx,test.xlsx,stimuli/Test1.png,stimuli/Test2.png,stimuli/Social4.png,stimuli/Social3.png,stimuli/Nonsocial4.png,stimuli/Nonsocial3.png,stimuli/Social2.png,stimuli/Social1.png,stimuli/Nonsocial2.png,stimuli/Nonsocial1.png,"(-0.7, -0.5)",cs_pos_ns_new,"(0.7, -0.5)",cs_pos_ns_new,0,0,0,0,,,,,0,20,20,74,,166.57049589976668,ä,0.5661312001757324,correct,,9,D,2024-04-19_08h56.46.756,gca_discrimination2,2022.2.4,143.92216672849503,
positions.xlsx,stimuli.xlsx,test.xlsx,stimuli/Test1.png,stimuli/Test2.png,stimuli/Social4.png,stimuli/Social3.png,stimuli/Nonsocial4.png,stimuli/Nonsocial3.png,stimuli/Social2.png,stimuli/Social1.png,stimuli/Nonsocial2.png,stimuli/Nonsocial1.png,"(0.7, 0.5)",cs_neg_s_new,"(-0.7, 0.5)",cs_pos_s_new,0,0,0,0,,,,,0,21,21,18,,169.5912053999491,l,0.3051308006979525,correct,,9,D,2024-04-19_08h56.46.756,gca_discrimination2,2022.2.4,143.92216672849503,
positions.xlsx,stimuli.xlsx,test.xlsx,stimuli/Test1.png,stimuli/Test2.png,stimuli/Social4.png,stimuli/Social3.png,stimuli/Nonsocial4.png,stimuli/Nonsocial3.png,stimuli/Social2.png,stimuli/Social1.png,stimuli/Nonsocial2.png,stimuli/Nonsocial1.png,"(-0.7, -0.5)",cs_pos_ns,"(0.7, 0.5)",cs_pos_ns,0,0,0,0,,,,,0,22,22,92,,172.60494989994913,ä,1.0522081004455686,correct,,9,D,2024-04-19_08h56.46.756,gca_discrimination2,2022.2.4,143.92216672849503,
positions.xlsx,stimuli.xlsx,test.xlsx,stimuli/Test1.png,stimuli/Test2.png,stimuli/Social4.png,stimuli/Social3.png,stimuli/Nonsocial4.png,stimuli/Nonsocial3.png,stimuli/Social2.png,stimuli/Social1.png,stimuli/Nonsocial2.png,stimuli/Nonsocial1.png,"(-0.7, 0.5)",cs_neg_s_new,"(0.7, 0.5)",cs_neg_s,0,0,0,0,,,,,0,23,23,11,,175.52845449978486,l,0.3202934004366398,correct,,9,D,2024-04-19_08h56.46.756,gca_discrimination2,2022.2.4,143.92216672849503,
positions.xlsx,stimuli.xlsx,test.xlsx,stimuli/Test1.png,stimuli/Test2.png,stimuli/Social4.png,stimuli/Social3.png,stimuli/Nonsocial4.png,stimuli/Nonsocial3.png,stimuli/Social2.png,stimuli/Social1.png,stimuli/Nonsocial2.png,stimuli/Nonsocial1.png,"(0.7, -0.5)",cs_neg_ns,"(-0.7, 0.5)",cs_neg_ns_new,0,0,0,0,,,,,0,24,24,35,,177.8408704996109,l,0.6963528003543615,correct,,9,D,2024-04-19_08h56.46.756,gca_discrimination2,2022.2.4,143.92216672849503,
positions.xlsx,stimuli.xlsx,test.xlsx,stimuli/Test1.png,stimuli/Test2.png,stimuli/Social4.png,stimuli/Social3.png,stimuli/Nonsocial4.png,stimuli/Nonsocial3.png,stimuli/Social2.png,stimuli/Social1.png,stimuli/Nonsocial2.png,stimuli/Nonsocial1.png,"(0.7, -0.5)",cs_neg_s_new,"(-0.7, 0.5)",cs_neg_s,0,0,0,0,,,,,0,25,25,7,,181.31295190006495,l,0.6332948002964258,correct,,9,D,2024-04-19_08h56.46.756,gca_discrimination2,2022.2.4,143.92216672849503,
positions.xlsx,stimuli.xlsx,test.xlsx,stimuli/Test1.png,stimuli/Test2.png,stimuli/Social4.png,stimuli/Social3.png,stimuli/Nonsocial4.png,stimuli/Nonsocial3.png,stimuli/Social2.png,stimuli/Social1.png,stimuli/Nonsocial2.png,stimuli/Nonsocial1.png,"(0.7, 0.5)",cs_neg_s_new,"(-0.7, 0.5)",cs_neg_s_new,0,0,0,0,,,,,0,26,26,61,,183.84060129988939,ä,0.8800979005172849,correct,,9,D,2024-04-19_08h56.46.756,gca_discrimination2,2022.2.4,143.92216672849503,
positions.xlsx,stimuli.xlsx,test.xlsx,stimuli/Test1.png,stimuli/Test2.png,stimuli/Social4.png,stimuli/Social3.png,stimuli/Nonsocial4.png,stimuli/Nonsocial3.png,stimuli/Social2.png,stimuli/Social1.png,stimuli/Nonsocial2.png,stimuli/Nonsocial1.png,"(0.7, 0.5)",cs_pos_s_new,"(-0.7, 0.5)",cs_pos_s_new,0,0,0,0,,,,,0,27,27,62,,186.72242489969358,ä,0.9350792001932859,correct,,9,D,2024-04-19_08h56.46.756,gca_discrimination2,2022.2.4,143.92216672849503,
positions.xlsx,stimuli.xlsx,test.xlsx,stimuli/Test1.png,stimuli/Test2.png,stimuli/Social4.png,stimuli/Social3.png,stimuli/Nonsocial4.png,stimuli/Nonsocial3.png,stimuli/Social2.png,stimuli/Social1.png,stimuli/Nonsocial2.png,stimuli/Nonsocial1.png,"(0.7, -0.5)",cs_pos_ns,"(-0.7, -0.5)",cs_pos_ns_new,0,0,0,0,,,,,0,28,28,39,,190.2917495998554,l,0.652799800503999,correct,,9,D,2024-04-19_08h56.46.756,gca_discrimination2,2022.2.4,143.92216672849503,
positions.xlsx,stimuli.xlsx,test.xlsx,stimuli/Test1.png,stimuli/Test2.png,stimuli/Social4.png,stimuli/Social3.png,stimuli/Nonsocial4.png,stimuli/Nonsocial3.png,stimuli/Social2.png,stimuli/Social1.png,stimuli/Nonsocial2.png,stimuli/Nonsocial1.png,"(-0.7, 0.5)",cs_pos_s_new,"(0.7, -0.5)",cs_pos_s_new,0,0,0,0,,,,,0,29,29,48,,193.26384839974344,l,1.5298808002844453,wrong,,9,D,2024-04-19_08h56.46.756,gca_discrimination2,2022.2.4,143.92216672849503,
positions.xlsx,stimuli.xlsx,test.xlsx,stimuli/Test1.png,stimuli/Test2.png,stimuli/Social4.png,stimuli/Social3.png,stimuli/Nonsocial4.png,stimuli/Nonsocial3.png,stimuli/Social2.png,stimuli/Social1.png,stimuli/Nonsocial2.png,stimuli/Nonsocial1.png,"(0.7, 0.5)",cs_neg_ns_new,"(0.7, -0.5)",cs_neg_ns_new,0,0,0,0,,,,,0,30,30,86,,196.83312129974365,ä,0.5198849001899362,correct,,9,D,2024-04-19_08h56.46.756,gca_discrimination2,2022.2.4,143.92216672849503,
positions.xlsx,stimuli.xlsx,test.xlsx,stimuli/Test1.png,stimuli/Test2.png,stimuli/Social4.png,stimuli/Social3.png,stimuli/Nonsocial4.png,stimuli/Nonsocial3.png,stimuli/Social2.png,stimuli/Social1.png,stimuli/Nonsocial2.png,stimuli/Nonsocial1.png,"(0.7, 0.5)",cs_pos_s,"(0.7, -0.5)",cs_pos_s_new,0,0,0,0,,,,,0,31,31,14,,199.8954851999879,ä,0.5706796003505588,wrong,,9,D,2024-04-19_08h56.46.756,gca_discrimination2,2022.2.4,143.92216672849503,
positions.xlsx,stimuli.xlsx,test.xlsx,stimuli/Test1.png,stimuli/Test2.png,stimuli/Social4.png,stimuli/Social3.png,stimuli/Nonsocial4.png,stimuli/Nonsocial3.png,stimuli/Social2.png,stimuli/Social1.png,stimuli/Nonsocial2.png,stimuli/Nonsocial1.png,"(-0.7, 0.5)",cs_pos_s_new,"(-0.7, -0.5)",cs_pos_s,0,0,0,0,,,,,0,32,32,9,,203.1731638996862,ä,0.6520724003203213,wrong,,9,D,2024-04-19_08h56.46.756,gca_discrimination2,2022.2.4,143.92216672849503,
positions.xlsx,stimuli.xlsx,test.xlsx,stimuli/Test1.png,stimuli/Test2.png,stimuli/Social4.png,stimuli/Social3.png,stimuli/Nonsocial4.png,stimuli/Nonsocial3.png,stimuli/Social2.png,stimuli/Social1.png,stimuli/Nonsocial2.png,stimuli/Nonsocial1.png,"(0.7, -0.5)",cs_pos_ns,"(-0.7, 0.5)",cs_pos_ns,0,0,0,0,,,,,0,33,33,82,,206.3118793000467,ä,0.37700080033391714,correct,,9,D,2024-04-19_08h56.46.756,gca_discrimination2,2022.2.4,143.92216672849503,
positions.xlsx,stimuli.xlsx,test.xlsx,stimuli/Test1.png,stimuli/Test2.png,stimuli/Social4.png,stimuli/Social3.png,stimuli/Nonsocial4.png,stimuli/Nonsocial3.png,stimuli/Social2.png,stimuli/Social1.png,stimuli/Nonsocial2.png,stimuli/Nonsocial1.png,"(-0.7, -0.5)",cs_pos_s_new,"(0.7, 0.5)",cs_neg_s_new,0,0,0,0,,,,,0,34,34,12,,208.99234159989282,ä,0.4642492006532848,wrong,,9,D,2024-04-19_08h56.46.756,gca_discrimination2,2022.2.4,143.92216672849503,
positions.xlsx,stimuli.xlsx,test.xlsx,stimuli/Test1.png,stimuli/Test2.png,stimuli/Social4.png,stimuli/Social3.png,stimuli/Nonsocial4.png,stimuli/Nonsocial3.png,stimuli/Social2.png,stimuli/Social1.png,stimuli/Nonsocial2.png,stimuli/Nonsocial1.png,"(0.7, 0.5)",cs_neg_s,"(-0.7, 0.5)",cs_neg_s_new,0,0,0,0,,,,,0,35,35,13,,211.97834450006485,l,0.45465120021253824,correct,,9,D,2024-04-19_08h56.46.756,gca_discrimination2,2022.2.4,143.92216672849503,
positions.xlsx,stimuli.xlsx,test.xlsx,stimuli/Test1.png,stimuli/Test2.png,stimuli/Social4.png,stimuli/Social3.png,stimuli/Nonsocial4.png,stimuli/Nonsocial3.png,stimuli/Social2.png,stimuli/Social1.png,stimuli/Nonsocial2.png,stimuli/Nonsocial1.png,"(-0.7, 0.5)",cs_pos_ns,"(0.7, -0.5)",cs_pos_ns,0,0,0,0,,,,,0,36,36,83,,215.18653419986367,ä,0.6948046004399657,correct,,9,D,2024-04-19_08h56.46.756,gca_discrimination2,2022.2.4,143.92216672849503,
positions.xlsx,stimuli.xlsx,test.xlsx,stimuli/Test1.png,stimuli/Test2.png,stimuli/Social4.png,stimuli/Social3.png,stimuli/Nonsocial4.png,stimuli/Nonsocial3.png,stimuli/Social2.png,stimuli/Social1.png,stimuli/Nonsocial2.png,stimuli/Nonsocial1.png,"(0.7, -0.5)",cs_pos_s_new,"(0.7, 0.5)",cs_pos_s_new,0,0,0,0,,,,,0,37,37,65,,218.17256269976497,ä,0.9240126004442573,correct,,9,D,2024-04-19_08h56.46.756,gca_discrimination2,2022.2.4,143.92216672849503,
positions.xlsx,stimuli.xlsx,test.xlsx,stimuli/Test1.png,stimuli/Test2.png,stimuli/Social4.png,stimuli/Social3.png,stimuli/Nonsocial4.png,stimuli/Nonsocial3.png,stimuli/Social2.png,stimuli/Social1.png,stimuli/Nonsocial2.png,stimuli/Nonsocial1.png,"(0.7, 0.5)",cs_pos_s_new,"(0.7, -0.5)",cs_pos_s_new,0,0,0,0,,,,,0,38,38,56,,221.39463139977306,l,0.7346075000241399,wrong,,9,D,2024-04-19_08h56.46.756,gca_discrimination2,2022.2.4,143.92216672849503,
positions.xlsx,stimuli.xlsx,test.xlsx,stimuli/Test1.png,stimuli/Test2.png,stimuli/Social4.png,stimuli/Social3.png,stimuli/Nonsocial4.png,stimuli/Nonsocial3.png,stimuli/Social2.png,stimuli/Social1.png,stimuli/Nonsocial2.png,stimuli/Nonsocial1.png,"(0.7, -0.5)",cs_neg_s_new,"(-0.7, -0.5)",cs_neg_s_new,0,0,0,0,,,,,0,39,39,52,,224.29030809970573,ä,0.7824500002898276,correct,,9,D,2024-04-19_08h56.46.756,gca_discrimination2,2022.2.4,143.92216672849503,
positions.xlsx,stimuli.xlsx,test.xlsx,stimuli/Test1.png,stimuli/Test2.png,stimuli/Social4.png,stimuli/Social3.png,stimuli/Nonsocial4.png,stimuli/Nonsocial3.png,stimuli/Social2.png,stimuli/Social1.png,stimuli/Nonsocial2.png,stimuli/Nonsocial1.png,"(0.7, 0.5)",cs_pos_ns_new,"(0.7, -0.5)",cs_neg_ns,0,0,0,0,,,,,0,40,40,36,,227.47769079962745,ä,0.9948664004914463,wrong,,9,D,2024-04-19_08h56.46.756,gca_discrimination2,2022.2.4,143.92216672849503,
positions.xlsx,stimuli.xlsx,test.xlsx,stimuli/Test1.png,stimuli/Test2.png,stimuli/Social4.png,stimuli/Social3.png,stimuli/Nonsocial4.png,stimuli/Nonsocial3.png,stimuli/Social2.png,stimuli/Social1.png,stimuli/Nonsocial2.png,stimuli/Nonsocial1.png,"(-0.7, -0.5)",cs_neg_s_new,"(0.7, 0.5)",cs_neg_s,0,0,0,0,,,,,0,41,41,16,,230.31787559995428,l,0.6679967003874481,correct,,9,D,2024-04-19_08h56.46.756,gca_discrimination2,2022.2.4,143.92216672849503,
positions.xlsx,stimuli.xlsx,test.xlsx,stimuli/Test1.png,stimuli/Test2.png,stimuli/Social4.png,stimuli/Social3.png,stimuli/Nonsocial4.png,stimuli/Nonsocial3.png,stimuli/Social2.png,stimuli/Social1.png,stimuli/Nonsocial2.png,stimuli/Nonsocial1.png,"(-0.7, -0.5)",cs_pos_ns_new,"(0.7, -0.5)",cs_neg_ns,0,0,0,0,,,,,0,42,42,37,,233.44968899991363,l,0.8230603002011776,correct,,9,D,2024-04-19_08h56.46.756,gca_discrimination2,2022.2.4,143.92216672849503,
positions.xlsx,stimuli.xlsx,test.xlsx,stimuli/Test1.png,stimuli/Test2.png,stimuli/Social4.png,stimuli/Social3.png,stimuli/Nonsocial4.png,stimuli/Nonsocial3.png,stimuli/Social2.png,stimuli/Social1.png,stimuli/Nonsocial2.png,stimuli/Nonsocial1.png,"(0.7, -0.5)",cs_neg_ns,"(-0.7, -0.5)",cs_pos_ns,0,0,0,0,,,,,0,43,43,47,,237.0259244996123,ä,0.7268186006695032,wrong,,9,D,2024-04-19_08h56.46.756,gca_discrimination2,2022.2.4,143.92216672849503,
positions.xlsx,stimuli.xlsx,test.xlsx,stimuli/Test1.png,stimuli/Test2.png,stimuli/Social4.png,stimuli/Social3.png,stimuli/Nonsocial4.png,stimuli/Nonsocial3.png,stimuli/Social2.png,stimuli/Social1.png,stimuli/Nonsocial2.png,stimuli/Nonsocial1.png,"(0.7, 0.5)",cs_pos_ns_new,"(0.7, -0.5)",cs_pos_ns,0,0,0,0,,,,,0,44,44,38,,239.99802109971642,l,1.3070285003632307,correct,,9,D,2024-04-19_08h56.46.756,gca_discrimination2,2022.2.4,143.92216672849503,
positions.xlsx,stimuli.xlsx,test.xlsx,stimuli/Test1.png,stimuli/Test2.png,stimuli/Social4.png,stimuli/Social3.png,stimuli/Nonsocial4.png,stimuli/Nonsocial3.png,stimuli/Social2.png,stimuli/Social1.png,stimuli/Nonsocial2.png,stimuli/Nonsocial1.png,"(-0.7, -0.5)",cs_pos_s_new,"(-0.7, 0.5)",cs_neg_s,0,0,0,0,,,,,0,45,45,5,,243.23399569978938,l,0.5360613004304469,correct,,9,D,2024-04-19_08h56.46.756,gca_discrimination2,2022.2.4,143.92216672849503,
positions.xlsx,stimuli.xlsx,test.xlsx,stimuli/Test1.png,stimuli/Test2.png,stimuli/Social4.png,stimuli/Social3.png,stimuli/Nonsocial4.png,stimuli/Nonsocial3.png,stimuli/Social2.png,stimuli/Social1.png,stimuli/Nonsocial2.png,stimuli/Nonsocial1.png,"(0.7, 0.5)",cs_pos_s_new,"(-0.7, 0.5)",cs_pos_s,0,0,0,0,,,,,0,46,46,22,,245.63662480004132,ä,0.8602895000949502,wrong,,9,D,2024-04-19_08h56.46.756,gca_discrimination2,2022.2.4,143.92216672849503,
positions.xlsx,stimuli.xlsx,test.xlsx,stimuli/Test1.png,stimuli/Test2.png,stimuli/Social4.png,stimuli/Social3.png,stimuli/Nonsocial4.png,stimuli/Nonsocial3.png,stimuli/Social2.png,stimuli/Social1.png,stimuli/Nonsocial2.png,stimuli/Nonsocial1.png,"(0.7, -0.5)",cs_neg_s,"(-0.7, -0.5)",cs_neg_s,0,0,0,0,,,,,0,47,47,69,,248.87960859993473,ä,0.6412947000935674,correct,,9,D,2024-04-19_08h56.46.756,gca_discrimination2,2022.2.4,143.92216672849503,
positions.xlsx,stimuli.xlsx,test.xlsx,stimuli/Test1.png,stimuli/Test2.png,stimuli/Social4.png,stimuli/Social3.png,stimuli/Nonsocial4.png,stimuli/Nonsocial3.png,stimuli/Social2.png,stimuli/Social1.png,stimuli/Nonsocial2.png,stimuli/Nonsocial1.png,"(0.7, 0.5)",cs_neg_ns,"(-0.7, 0.5)",cs_neg_ns_new,0,0,0,0,,,,,0,48,48,41,,251.7891907999292,l,0.8998315003700554,correct,,9,D,2024-04-19_08h56.46.756,gca_discrimination2,2022.2.4,143.92216672849503,
positions.xlsx,stimuli.xlsx,test.xlsx,stimuli/Test1.png,stimuli/Test2.png,stimuli/Social4.png,stimuli/Social3.png,stimuli/Nonsocial4.png,stimuli/Nonsocial3.png,stimuli/Social2.png,stimuli/Social1.png,stimuli/Nonsocial2.png,stimuli/Nonsocial1.png,"(-0.7, 0.5)",cs_pos_s,"(0.7, -0.5)",cs_pos_s,0,0,0,0,,,,,0,49,49,60,,255.40711299981922,l,0.5628030002117157,wrong,,9,D,2024-04-19_08h56.46.756,gca_discrimination2,2022.2.4,143.92216672849503,
positions.xlsx,stimuli.xlsx,test.xlsx,stimuli/Test1.png,stimuli/Test2.png,stimuli/Social4.png,stimuli/Social3.png,stimuli/Nonsocial4.png,stimuli/Nonsocial3.png,stimuli/Social2.png,stimuli/Social1.png,stimuli/Nonsocial2.png,stimuli/Nonsocial1.png,"(-0.7, 0.5)",cs_neg_ns,"(0.7, -0.5)",cs_neg_ns,0,0,0,0,,,,,0,50,50,72,,258.6222383999266,ä,1.2742370003834367,correct,,9,D,2024-04-19_08h56.46.756,gca_discrimination2,2022.2.4,143.92216672849503,
positions.xlsx,stimuli.xlsx,test.xlsx,stimuli/Test1.png,stimuli/Test2.png,stimuli/Social4.png,stimuli/Social3.png,stimuli/Nonsocial4.png,stimuli/Nonsocial3.png,stimuli/Social2.png,stimuli/Social1.png,stimuli/Nonsocial2.png,stimuli/Nonsocial1.png,"(0.7, -0.5)",cs_neg_s_new,"(0.7, 0.5)",cs_pos_s_new,0,0,0,0,,,,,0,51,51,0,,261.8026827997528,l,0.5658732005394995,correct,,9,D,2024-04-19_08h56.46.756,gca_discrimination2,2022.2.4,143.92216672849503,
positions.xlsx,stimuli.xlsx,test.xlsx,stimuli/Test1.png,stimuli/Test2.png,stimuli/Social4.png,stimuli/Social3.png,stimuli/Nonsocial4.png,stimuli/Nonsocial3.png,stimuli/Social2.png,stimuli/Social1.png,stimuli/Nonsocial2.png,stimuli/Nonsocial1.png,"(0.7, 0.5)",cs_pos_ns_new,"(-0.7, 0.5)",cs_pos_ns_new,0,0,0,0,,,,,0,52,52,78,,265.1706012999639,ä,0.5337143000215292,correct,,9,D,2024-04-19_08h56.46.756,gca_discrimination2,2022.2.4,143.92216672849503,
positions.xlsx,stimuli.xlsx,test.xlsx,stimuli/Test1.png,stimuli/Test2.png,stimuli/Social4.png,stimuli/Social3.png,stimuli/Nonsocial4.png,stimuli/Nonsocial3.png,stimuli/Social2.png,stimuli/Social1.png,stimuli/Nonsocial2.png,stimuli/Nonsocial1.png,"(-0.7, -0.5)",cs_neg_s_new,"(-0.7, 0.5)",cs_neg_s_new,0,0,0,0,,,,,0,53,53,71,,267.79548289999366,ä,1.302713400684297,correct,,9,D,2024-04-19_08h56.46.756,gca_discrimination2,2022.2.4,143.92216672849503,
positions.xlsx,stimuli.xlsx,test.xlsx,stimuli/Test1.png,stimuli/Test2.png,stimuli/Social4.png,stimuli/Social3.png,stimuli/Nonsocial4.png,stimuli/Nonsocial3.png,stimuli/Social2.png,stimuli/Social1.png,stimuli/Nonsocial2.png,stimuli/Nonsocial1.png,"(-0.7, -0.5)",cs_neg_s,"(0.7, 0.5)",cs_neg_s,0,0,0,0,,,,,0,54,54,63,,271.26756710000336,ä,1.0131935002282262,correct,,9,D,2024-04-19_08h56.46.756,gca_discrimination2,2022.2.4,143.92216672849503,
positions.xlsx,stimuli.xlsx,test.xlsx,stimuli/Test1.png,stimuli/Test2.png,stimuli/Social4.png,stimuli/Social3.png,stimuli/Nonsocial4.png,stimuli/Nonsocial3.png,stimuli/Social2.png,stimuli/Social1.png,stimuli/Nonsocial2.png,stimuli/Nonsocial1.png,"(-0.7, -0.5)",cs_neg_s,"(0.7, 0.5)",cs_pos_s,0,0,0,0,,,,,0,55,55,10,,274.6007439000532,l,0.5204115002416074,correct,,9,D,2024-04-19_08h56.46.756,gca_discrimination2,2022.2.4,143.92216672849503,
positions.xlsx,stimuli.xlsx,test.xlsx,stimuli/Test1.png,stimuli/Test2.png,stimuli/Social4.png,stimuli/Social3.png,stimuli/Nonsocial4.png,stimuli/Nonsocial3.png,stimuli/Social2.png,stimuli/Social1.png,stimuli/Nonsocial2.png,stimuli/Nonsocial1.png,"(0.7, -0.5)",cs_neg_s,"(-0.7, 0.5)",cs_neg_s,0,0,0,0,,,,,0,56,56,70,,276.96871199971065,ä,0.8325977004133165,correct,,9,D,2024-04-19_08h56.46.756,gca_discrimination2,2022.2.4,143.92216672849503,
positions.xlsx,stimuli.xlsx,test.xlsx,stimuli/Test1.png,stimuli/Test2.png,stimuli/Social4.png,stimuli/Social3.png,stimuli/Nonsocial4.png,stimuli/Nonsocial3.png,stimuli/Social2.png,stimuli/Social1.png,stimuli/Nonsocial2.png,stimuli/Nonsocial1.png,"(0.7, -0.5)",cs_pos_ns_new,"(-0.7, -0.5)",cs_pos_ns_new,0,0,0,0,,,,,0,57,57,76,,280.30189700005576,ä,0.7066246001049876,correct,,9,D,2024-04-19_08h56.46.756,gca_discrimination2,2022.2.4,143.92216672849503,
positions.xlsx,stimuli.xlsx,test.xlsx,stimuli/Test1.png,stimuli/Test2.png,stimuli/Social4.png,stimuli/Social3.png,stimuli/Nonsocial4.png,stimuli/Nonsocial3.png,stimuli/Social2.png,stimuli/Social1.png,stimuli/Nonsocial2.png,stimuli/Nonsocial1.png,"(0.7, 0.5)",cs_pos_s_new,"(-0.7, -0.5)",cs_pos_s_new,0,0,0,0,,,,,0,58,58,49,,283.4407504997216,ä,0.5835815002210438,correct,,9,D,2024-04-19_08h56.46.756,gca_discrimination2,2022.2.4,143.92216672849503,
positions.xlsx,stimuli.xlsx,test.xlsx,stimuli/Test1.png,stimuli/Test2.png,stimuli/Social4.png,stimuli/Social3.png,stimuli/Nonsocial4.png,stimuli/Nonsocial3.png,stimuli/Social2.png,stimuli/Social1.png,stimuli/Nonsocial2.png,stimuli/Nonsocial1.png,"(-0.7, -0.5)",cs_neg_s,"(0.7, -0.5)",cs_pos_s_new,0,0,0,0,,,,,0,59,59,6,,286.461392799858,l,0.5715933004394174,correct,,9,D,2024-04-19_08h56.46.756,gca_discrimination2,2022.2.4,143.92216672849503,
positions.xlsx,stimuli.xlsx,test.xlsx,stimuli/Test1.png,stimuli/Test2.png,stimuli/Social4.png,stimuli/Social3.png,stimuli/Nonsocial4.png,stimuli/Nonsocial3.png,stimuli/Social2.png,stimuli/Social1.png,stimuli/Nonsocial2.png,stimuli/Nonsocial1.png,"(-0.7, -0.5)",cs_pos_ns_new,"(-0.7, 0.5)",cs_neg_ns,0,0,0,0,,,,,0,60,60,24,,288.93350349972025,l,0.8842271002940834,correct,,9,D,2024-04-19_08h56.46.756,gca_discrimination2,2022.2.4,143.92216672849503,
positions.xlsx,stimuli.xlsx,test.xlsx,stimuli/Test1.png,stimuli/Test2.png,stimuli/Social4.png,stimuli/Social3.png,stimuli/Nonsocial4.png,stimuli/Nonsocial3.png,stimuli/Social2.png,stimuli/Social1.png,stimuli/Nonsocial2.png,stimuli/Nonsocial1.png,"(0.7, 0.5)",cs_pos_ns,"(-0.7, 0.5)",cs_pos_ns,0,0,0,0,,,,,0,61,61,77,,292.54447389999405,ä,0.5920028002001345,correct,,9,D,2024-04-19_08h56.46.756,gca_discrimination2,2022.2.4,143.92216672849503,
positions.xlsx,stimuli.xlsx,test.xlsx,stimuli/Test1.png,stimuli/Test2.png,stimuli/Social4.png,stimuli/Social3.png,stimuli/Nonsocial4.png,stimuli/Nonsocial3.png,stimuli/Social2.png,stimuli/Social1.png,stimuli/Nonsocial2.png,stimuli/Nonsocial1.png,"(-0.7, -0.5)",cs_neg_s_new,"(0.7, -0.5)",cs_pos_s,0,0,0,0,,,,,0,62,62,1,,295.4748848997988,l,0.5902886004187167,correct,,9,D,2024-04-19_08h56.46.756,gca_discrimination2,2022.2.4,143.92216672849503,
positions.xlsx,stimuli.xlsx,test.xlsx,stimuli/Test1.png,stimuli/Test2.png,stimuli/Social4.png,stimuli/Social3.png,stimuli/Nonsocial4.png,stimuli/Nonsocial3.png,stimuli/Social2.png,stimuli/Social1.png,stimuli/Nonsocial2.png,stimuli/Nonsocial1.png,"(-0.7, 0.5)",cs_neg_ns_new,"(-0.7, -0.5)",cs_pos_ns,0,0,0,0,,,,,0,63,63,44,,298.79422639962286,ä,1.2312005003914237,wrong,,9,D,2024-04-19_08h56.46.756,gca_discrimination2,2022.2.4,143.92216672849503,
positions.xlsx,stimuli.xlsx,test.xlsx,stimuli/Test1.png,stimuli/Test2.png,stimuli/Social4.png,stimuli/Social3.png,stimuli/Nonsocial4.png,stimuli/Nonsocial3.png,stimuli/Social2.png,stimuli/Social1.png,stimuli/Nonsocial2.png,stimuli/Nonsocial1.png,"(-0.7, -0.5)",cs_neg_s_new,"(0.7, 0.5)",cs_neg_s_new,0,0,0,0,,,,,0,64,64,67,,302.0232559996657,l,0.9702742001973093,wrong,,9,D,2024-04-19_08h56.46.756,gca_discrimination2,2022.2.4,143.92216672849503,
positions.xlsx,stimuli.xlsx,test.xlsx,stimuli/Test1.png,stimuli/Test2.png,stimuli/Social4.png,stimuli/Social3.png,stimuli/Nonsocial4.png,stimuli/Nonsocial3.png,stimuli/Social2.png,stimuli/Social1.png,stimuli/Nonsocial2.png,stimuli/Nonsocial1.png,"(0.7, 0.5)",cs_neg_s_new,"(0.7, -0.5)",cs_pos_s,0,0,0,0,,,,,0,65,65,19,,305.106432300061,l,0.8785299002192914,correct,,9,D,2024-04-19_08h56.46.756,gca_discrimination2,2022.2.4,143.92216672849503,
positions.xlsx,stimuli.xlsx,test.xlsx,stimuli/Test1.png,stimuli/Test2.png,stimuli/Social4.png,stimuli/Social3.png,stimuli/Nonsocial4.png,stimuli/Nonsocial3.png,stimuli/Social2.png,stimuli/Social1.png,stimuli/Nonsocial2.png,stimuli/Nonsocial1.png,"(-0.7, 0.5)",cs_neg_s_new,"(-0.7, -0.5)",cs_neg_s_new,0,0,0,0,,,,,0,66,66,64,,308.5507549997419,ä,0.49761700071394444,correct,,9,D,2024-04-19_08h56.46.756,gca_discrimination2,2022.2.4,143.92216672849503,
positions.xlsx,stimuli.xlsx,test.xlsx,stimuli/Test1.png,stimuli/Test2.png,stimuli/Social4.png,stimuli/Social3.png,stimuli/Nonsocial4.png,stimuli/Nonsocial3.png,stimuli/Social2.png,stimuli/Social1.png,stimuli/Nonsocial2.png,stimuli/Nonsocial1.png,"(0.7, 0.5)",cs_neg_ns_new,"(-0.7, -0.5)",cs_neg_ns_new,0,0,0,0,,,,,0,67,67,81,,311.231192599982,ä,0.5377227002754807,correct,,9,D,2024-04-19_08h56.46.756,gca_discrimination2,2022.2.4,143.92216672849503,
positions.xlsx,stimuli.xlsx,test.xlsx,stimuli/Test1.png,stimuli/Test2.png,stimuli/Social4.png,stimuli/Social3.png,stimuli/Nonsocial4.png,stimuli/Nonsocial3.png,stimuli/Social2.png,stimuli/Social1.png,stimuli/Nonsocial2.png,stimuli/Nonsocial1.png,"(-0.7, 0.5)",cs_neg_s,"(-0.7, -0.5)",cs_neg_s,0,0,0,0,,,,,0,68,68,51,,313.71028169989586,ä,0.4659452000632882,correct,,9,D,2024-04-19_08h56.46.756,gca_discrimination2,2022.2.4,143.92216672849503,
positions.xlsx,stimuli.xlsx,test.xlsx,stimuli/Test1.png,stimuli/Test2.png,stimuli/Social4.png,stimuli/Social3.png,stimuli/Nonsocial4.png,stimuli/Nonsocial3.png,stimuli/Social2.png,stimuli/Social1.png,stimuli/Nonsocial2.png,stimuli/Nonsocial1.png,"(0.7, 0.5)",cs_neg_ns_new,"(-0.7, 0.5)",cs_pos_ns_new,0,0,0,0,,,,,0,69,69,34,,316.0573863000609,ä,0.47171410033479333,wrong,,9,D,2024-04-19_08h56.46.756,gca_discrimination2,2022.2.4,143.92216672849503,
positions.xlsx,stimuli.xlsx,test.xlsx,stimuli/Test1.png,stimuli/Test2.png,stimuli/Social4.png,stimuli/Social3.png,stimuli/Nonsocial4.png,stimuli/Nonsocial3.png,stimuli/Social2.png,stimuli/Social1.png,stimuli/Nonsocial2.png,stimuli/Nonsocial1.png,"(0.7, -0.5)",cs_neg_ns,"(-0.7, -0.5)",cs_neg_ns,0,0,0,0,,,,,0,70,70,90,,319.0295039997436,ä,0.6036954000592232,correct,,9,D,2024-04-19_08h56.46.756,gca_discrimination2,2022.2.4,143.92216672849503,
positions.xlsx,stimuli.xlsx,test.xlsx,stimuli/Test1.png,stimuli/Test2.png,stimuli/Social4.png,stimuli/Social3.png,stimuli/Nonsocial4.png,stimuli/Nonsocial3.png,stimuli/Social2.png,stimuli/Social1.png,stimuli/Nonsocial2.png,stimuli/Nonsocial1.png,"(-0.7, 0.5)",cs_pos_s,"(0.7, -0.5)",cs_pos_s_new,0,0,0,0,,,,,0,71,71,3,,322.348814799916,l,1.1717322999611497,correct,,9,D,2024-04-19_08h56.46.756,gca_discrimination2,2022.2.4,143.92216672849503,
positions.xlsx,stimuli.xlsx,test.xlsx,stimuli/Test1.png,stimuli/Test2.png,stimuli/Social4.png,stimuli/Social3.png,stimuli/Nonsocial4.png,stimuli/Nonsocial3.png,stimuli/Social2.png,stimuli/Social1.png,stimuli/Nonsocial2.png,stimuli/Nonsocial1.png,"(0.7, 0.5)",cs_pos_ns,"(0.7, -0.5)",cs_pos_ns,0,0,0,0,,,,,0,72,72,84,,325.93202780000865,ä,0.46891870023682714,correct,,9,D,2024-04-19_08h56.46.756,gca_discrimination2,2022.2.4,143.92216672849503,
positions.xlsx,stimuli.xlsx,test.xlsx,stimuli/Test1.png,stimuli/Test2.png,stimuli/Social4.png,stimuli/Social3.png,stimuli/Nonsocial4.png,stimuli/Nonsocial3.png,stimuli/Social2.png,stimuli/Social1.png,stimuli/Nonsocial2.png,stimuli/Nonsocial1.png,"(0.7, -0.5)",cs_neg_ns,"(0.7, 0.5)",cs_neg_ns,0,0,0,0,,,,,0,73,73,85,,328.3138607996516,ä,0.510975600220263,correct,,9,D,2024-04-19_08h56.46.756,gca_discrimination2,2022.2.4,143.92216672849503,
positions.xlsx,stimuli.xlsx,test.xlsx,stimuli/Test1.png,stimuli/Test2.png,stimuli/Social4.png,stimuli/Social3.png,stimuli/Nonsocial4.png,stimuli/Nonsocial3.png,stimuli/Social2.png,stimuli/Social1.png,stimuli/Nonsocial2.png,stimuli/Nonsocial1.png,"(-0.7, 0.5)",cs_neg_ns,"(0.7, 0.5)",cs_pos_ns_new,0,0,0,0,,,,,0,74,74,31,,331.1678827996366,l,0.5372133003547788,correct,,9,D,2024-04-19_08h56.46.756,gca_discrimination2,2022.2.4,143.92216672849503,
positions.xlsx,stimuli.xlsx,test.xlsx,stimuli/Test1.png,stimuli/Test2.png,stimuli/Social4.png,stimuli/Social3.png,stimuli/Nonsocial4.png,stimuli/Nonsocial3.png,stimuli/Social2.png,stimuli/Social1.png,stimuli/Nonsocial2.png,stimuli/Nonsocial1.png,"(-0.7, 0.5)",cs_neg_s_new,"(0.7, 0.5)",cs_neg_s_new,0,0,0,0,,,,,0,75,75,55,,333.69556729961187,ä,0.817444400396198,correct,,9,D,2024-04-19_08h56.46.756,gca_discrimination2,2022.2.4,143.92216672849503,
positions.xlsx,stimuli.xlsx,test.xlsx,stimuli/Test1.png,stimuli/Test2.png,stimuli/Social4.png,stimuli/Social3.png,stimuli/Nonsocial4.png,stimuli/Nonsocial3.png,stimuli/Social2.png,stimuli/Social1.png,stimuli/Nonsocial2.png,stimuli/Nonsocial1.png,"(0.7, 0.5)",cs_neg_ns,"(0.7, -0.5)",cs_pos_ns_new,0,0,0,0,,,,,0,76,76,30,,337.1398704997264,l,0.8130099005065858,correct,,9,D,2024-04-19_08h56.46.756,gca_discrimination2,2022.2.4,143.92216672849503,
positions.xlsx,stimuli.xlsx,test.xlsx,stimuli/Test1.png,stimuli/Test2.png,stimuli/Social4.png,stimuli/Social3.png,stimuli/Nonsocial4.png,stimuli/Nonsocial3.png,stimuli/Social2.png,stimuli/Social1.png,stimuli/Nonsocial2.png,stimuli/Nonsocial1.png,"(-0.7, 0.5)",cs_neg_ns,"(-0.7, -0.5)",cs_pos_ns_new,0,0,0,0,,,,,0,77,77,29,,339.90362129965797,l,0.7860503005795181,correct,,9,D,2024-04-19_08h56.46.756,gca_discrimination2,2022.2.4,143.92216672849503,
positions.xlsx,stimuli.xlsx,test.xlsx,stimuli/Test1.png,stimuli/Test2.png,stimuli/Social4.png,stimuli/Social3.png,stimuli/Nonsocial4.png,stimuli/Nonsocial3.png,stimuli/Social2.png,stimuli/Social1.png,stimuli/Nonsocial2.png,stimuli/Nonsocial1.png,"(0.7, 0.5)",cs_neg_ns_new,"(0.7, -0.5)",cs_pos_ns_new,0,0,0,0,,,,,0,78,78,42,,342.71600629994646,l,0.5327979004941881,correct,,9,D,2024-04-19_08h56.46.756,gca_discrimination2,2022.2.4,143.92216672849503,
positions.xlsx,stimuli.xlsx,test.xlsx,stimuli/Test1.png,stimuli/Test2.png,stimuli/Social4.png,stimuli/Social3.png,stimuli/Nonsocial4.png,stimuli/Nonsocial3.png,stimuli/Social2.png,stimuli/Social1.png,stimuli/Nonsocial2.png,stimuli/Nonsocial1.png,"(-0.7, 0.5)",cs_pos_ns_new,"(0.7, 0.5)",cs_neg_ns,0,0,0,0,,,,,0,79,79,25,,345.7367452997714,l,0.4721015002578497,correct,,9,D,2024-04-19_08h56.46.756,gca_discrimination2,2022.2.4,143.92216672849503,
positions.xlsx,stimuli.xlsx,test.xlsx,stimuli/Test1.png,stimuli/Test2.png,stimuli/Social4.png,stimuli/Social3.png,stimuli/Nonsocial4.png,stimuli/Nonsocial3.png,stimuli/Social2.png,stimuli/Social1.png,stimuli/Nonsocial2.png,stimuli/Nonsocial1.png,"(0.7, -0.5)",cs_neg_ns_new,"(-0.7, 0.5)",cs_neg_ns,0,0,0,0,,,,,0,80,80,26,,348.69493719981983,l,0.49009890062734485,correct,,9,D,2024-04-19_08h56.46.756,gca_discrimination2,2022.2.4,143.92216672849503,
positions.xlsx,stimuli.xlsx,test.xlsx,stimuli/Test1.png,stimuli/Test2.png,stimuli/Social4.png,stimuli/Social3.png,stimuli/Nonsocial4.png,stimuli/Nonsocial3.png,stimuli/Social2.png,stimuli/Social1.png,stimuli/Nonsocial2.png,stimuli/Nonsocial1.png,"(0.7, -0.5)",cs_neg_s,"(0.7, 0.5)",cs_neg_s,0,0,0,0,,,,,0,81,81,58,,351.07675899984315,ä,1.2129813004285097,correct,,9,D,2024-04-19_08h56.46.756,gca_discrimination2,2022.2.4,143.92216672849503,
positions.xlsx,stimuli.xlsx,test.xlsx,stimuli/Test1.png,stimuli/Test2.png,stimuli/Social4.png,stimuli/Social3.png,stimuli/Nonsocial4.png,stimuli/Nonsocial3.png,stimuli/Social2.png,stimuli/Social1.png,stimuli/Nonsocial2.png,stimuli/Nonsocial1.png,"(0.7, 0.5)",cs_neg_s,"(0.7, -0.5)",cs_neg_s,0,0,0,0,,,,,0,82,82,66,,354.340552999638,ä,1.067681200336665,correct,,9,D,2024-04-19_08h56.46.756,gca_discrimination2,2022.2.4,143.92216672849503,
positions.xlsx,stimuli.xlsx,test.xlsx,stimuli/Test1.png,stimuli/Test2.png,stimuli/Social4.png,stimuli/Social3.png,stimuli/Nonsocial4.png,stimuli/Nonsocial3.png,stimuli/Social2.png,stimuli/Social1.png,stimuli/Nonsocial2.png,stimuli/Nonsocial1.png,"(-0.7, 0.5)",cs_neg_ns_new,"(0.7, 0.5)",cs_neg_ns,0,0,0,0,,,,,0,83,83,27,,357.63203229987994,l,1.6250749002210796,correct,,9,D,2024-04-19_08h56.46.756,gca_discrimination2,2022.2.4,143.92216672849503,
positions.xlsx,stimuli.xlsx,test.xlsx,stimuli/Test1.png,stimuli/Test2.png,stimuli/Social4.png,stimuli/Social3.png,stimuli/Nonsocial4.png,stimuli/Nonsocial3.png,stimuli/Social2.png,stimuli/Social1.png,stimuli/Nonsocial2.png,stimuli/Nonsocial1.png,"(0.7, 0.5)",cs_neg_ns,"(-0.7, 0.5)",cs_neg_ns,0,0,0,0,,,,,0,84,84,94,,361.9374628998339,ä,1.0475567006506026,correct,,9,D,2024-04-19_08h56.46.756,gca_discrimination2,2022.2.4,143.92216672849503,
positions.xlsx,stimuli.xlsx,test.xlsx,stimuli/Test1.png,stimuli/Test2.png,stimuli/Social4.png,stimuli/Social3.png,stimuli/Nonsocial4.png,stimuli/Nonsocial3.png,stimuli/Social2.png,stimuli/Social1.png,stimuli/Nonsocial2.png,stimuli/Nonsocial1.png,"(-0.7, 0.5)",cs_neg_ns,"(-0.7, -0.5)",cs_neg_ns,0,0,0,0,,,,,0,85,85,89,,365.3887048996985,ä,0.9401456005871296,correct,,9,D,2024-04-19_08h56.46.756,gca_discrimination2,2022.2.4,143.92216672849503,
positions.xlsx,stimuli.xlsx,test.xlsx,stimuli/Test1.png,stimuli/Test2.png,stimuli/Social4.png,stimuli/Social3.png,stimuli/Nonsocial4.png,stimuli/Nonsocial3.png,stimuli/Social2.png,stimuli/Social1.png,stimuli/Nonsocial2.png,stimuli/Nonsocial1.png,"(0.7, -0.5)",cs_neg_s_new,"(0.7, 0.5)",cs_neg_s,0,0,0,0,,,,,0,86,86,2,,368.50661049969494,l,0.7510310006327927,correct,,9,D,2024-04-19_08h56.46.756,gca_discrimination2,2022.2.4,143.92216672849503,
positions.xlsx,stimuli.xlsx,test.xlsx,stimuli/Test1.png,stimuli/Test2.png,stimuli/Social4.png,stimuli/Social3.png,stimuli/Nonsocial4.png,stimuli/Nonsocial3.png,stimuli/Social2.png,stimuli/Social1.png,stimuli/Nonsocial2.png,stimuli/Nonsocial1.png,"(0.7, -0.5)",cs_pos_s_new,"(-0.7, -0.5)",cs_pos_s,0,0,0,0,,,,,0,87,87,4,,371.2079027998261,l,1.400799700524658,correct,,9,D,2024-04-19_08h56.46.756,gca_discrimination2,2022.2.4,143.92216672849503,
positions.xlsx,stimuli.xlsx,test.xlsx,stimuli/Test1.png,stimuli/Test2.png,stimuli/Social4.png,stimuli/Social3.png,stimuli/Nonsocial4.png,stimuli/Nonsocial3.png,stimuli/Social2.png,stimuli/Social1.png,stimuli/Nonsocial2.png,stimuli/Nonsocial1.png,"(-0.7, 0.5)",cs_neg_s,"(0.7, 0.5)",cs_neg_s,0,0,0,0,,,,,0,88,88,53,,375.2146779997274,ä,0.7221278003416955,correct,,9,D,2024-04-19_08h56.46.756,gca_discrimination2,2022.2.4,143.92216672849503,
positions.xlsx,stimuli.xlsx,test.xlsx,stimuli/Test1.png,stimuli/Test2.png,stimuli/Social4.png,stimuli/Social3.png,stimuli/Nonsocial4.png,stimuli/Nonsocial3.png,stimuli/Social2.png,stimuli/Social1.png,stimuli/Nonsocial2.png,stimuli/Nonsocial1.png,"(0.7, -0.5)",cs_pos_ns_new,"(-0.7, 0.5)",cs_pos_ns,0,0,0,0,,,,,0,89,89,28,,378.11734459968284,l,0.7790173003450036,correct,,9,D,2024-04-19_08h56.46.756,gca_discrimination2,2022.2.4,143.92216672849503,
positions.xlsx,stimuli.xlsx,test.xlsx,stimuli/Test1.png,stimuli/Test2.png,stimuli/Social4.png,stimuli/Social3.png,stimuli/Nonsocial4.png,stimuli/Nonsocial3.png,stimuli/Social2.png,stimuli/Social1.png,stimuli/Nonsocial2.png,stimuli/Nonsocial1.png,"(0.7, 0.5)",cs_neg_s,"(-0.7, -0.5)",cs_neg_s,0,0,0,0,,,,,0,90,90,54,,380.7492097998038,ä,0.5951778003945947,correct,,9,D,2024-04-19_08h56.46.756,gca_discrimination2,2022.2.4,143.92216672849503,
positions.xlsx,stimuli.xlsx,test.xlsx,stimuli/Test1.png,stimuli/Test2.png,stimuli/Social4.png,stimuli/Social3.png,stimuli/Nonsocial4.png,stimuli/Nonsocial3.png,stimuli/Social2.png,stimuli/Social1.png,stimuli/Nonsocial2.png,stimuli/Nonsocial1.png,"(-0.7, 0.5)",cs_pos_ns,"(-0.7, -0.5)",cs_pos_ns,0,0,0,0,,,,,0,91,91,91,,383.71435759961605,ä,1.5985799003392458,correct,,9,D,2024-04-19_08h56.46.756,gca_discrimination2,2022.2.4,143.92216672849503,
positions.xlsx,stimuli.xlsx,test.xlsx,stimuli/Test1.png,stimuli/Test2.png,stimuli/Social4.png,stimuli/Social3.png,stimuli/Nonsocial4.png,stimuli/Nonsocial3.png,stimuli/Social2.png,stimuli/Social1.png,stimuli/Nonsocial2.png,stimuli/Nonsocial1.png,"(0.7, -0.5)",cs_neg_s,"(0.7, 0.5)",cs_pos_s_new,0,0,0,0,,,,,0,92,92,8,,387.40169719979167,l,0.6150167002342641,correct,,9,D,2024-04-19_08h56.46.756,gca_discrimination2,2022.2.4,143.92216672849503,
positions.xlsx,stimuli.xlsx,test.xlsx,stimuli/Test1.png,stimuli/Test2.png,stimuli/Social4.png,stimuli/Social3.png,stimuli/Nonsocial4.png,stimuli/Nonsocial3.png,stimuli/Social2.png,stimuli/Social1.png,stimuli/Nonsocial2.png,stimuli/Nonsocial1.png,"(-0.7, -0.5)",cs_neg_ns_new,"(0.7, 0.5)",cs_neg_ns_new,0,0,0,0,,,,,0,93,93,73,,390.512673899997,l,0.9289136002771556,wrong,,9,D,2024-04-19_08h56.46.756,gca_discrimination2,2022.2.4,143.92216672849503,
positions.xlsx,stimuli.xlsx,test.xlsx,stimuli/Test1.png,stimuli/Test2.png,stimuli/Social4.png,stimuli/Social3.png,stimuli/Nonsocial4.png,stimuli/Nonsocial3.png,stimuli/Social2.png,stimuli/Social1.png,stimuli/Nonsocial2.png,stimuli/Nonsocial1.png,"(0.7, -0.5)",cs_pos_s,"(0.7, 0.5)",cs_pos_s_new,0,0,0,0,,,,,0,94,94,17,,393.991681299638,l,0.8727558003738523,correct,,9,D,2024-04-19_08h56.46.756,gca_discrimination2,2022.2.4,143.92216672849503,
positions.xlsx,stimuli.xlsx,test.xlsx,stimuli/Test1.png,stimuli/Test2.png,stimuli/Social4.png,stimuli/Social3.png,stimuli/Nonsocial4.png,stimuli/Nonsocial3.png,stimuli/Social2.png,stimuli/Social1.png,stimuli/Nonsocial2.png,stimuli/Nonsocial1.png,"(0.7, -0.5)",cs_pos_ns_new,"(-0.7, 0.5)",cs_pos_ns_new,0,0,0,0,,,,,0,95,95,95,,397.54013599967584,l,1.2447592006064951,wrong,,9,D,2024-04-19_08h56.46.756,gca_discrimination2,2022.2.4,143.92216672849503,
