posFile,stimFile,testFile,test1,test2,cs_neg_s,cs_pos_s,cs_neg_ns,cs_pos_ns,cs_neg_s_new,cs_pos_s_new,cs_neg_ns_new,cs_pos_ns_new,position1,stim1,position2,stim2,blocks.thisRepN,blocks.thisTrialN,blocks.thisN,blocks.thisIndex,learning_trials.thisRepN,learning_trials.thisTrialN,learning_trials.thisN,learning_trials.thisIndex,trials.thisRepN,trials.thisTrialN,trials.thisN,trials.thisIndex,textStart.started,key.started,key.keys,key.rt,correctness,textStartTask.started,participant,group,date,expName,psychopyVersion,frameRate,
positions.xlsx,stimuli.xlsx,test.xlsx,stimuli/Test1.png,stimuli/Test2.png,stimuli/Social1.png,stimuli/Social2.png,stimuli/Nonsocial1.png,stimuli/Nonsocial2.png,stimuli/Social3.png,stimuli/Social4.png,stimuli/Nonsocial3.png,stimuli/Nonsocial4.png,"(-0.7, 0.5)",test2,"(0.7, 0.5)",test2,0,0,0,0,0,0,0,7,,,,,14.943778899963945,68.97527940012515,l,0.36939150001853704,correct,,3,A,2024-04-08_13h12.05.946,gca_discrimination2,2022.2.4,143.96961612587828,
positions.xlsx,stimuli.xlsx,test.xlsx,stimuli/Test1.png,stimuli/Test2.png,stimuli/Social1.png,stimuli/Social2.png,stimuli/Nonsocial1.png,stimuli/Nonsocial2.png,stimuli/Social3.png,stimuli/Social4.png,stimuli/Nonsocial3.png,stimuli/Nonsocial4.png,"(0.7, -0.5)",test1,"(0.7, 0.5)",test2,0,0,0,0,0,1,1,9,,,,,,73.84311660006642,ä,0.4374692002311349,correct,,3,A,2024-04-08_13h12.05.946,gca_discrimination2,2022.2.4,143.96961612587828,
positions.xlsx,stimuli.xlsx,test.xlsx,stimuli/Test1.png,stimuli/Test2.png,stimuli/Social1.png,stimuli/Social2.png,stimuli/Nonsocial1.png,stimuli/Nonsocial2.png,stimuli/Social3.png,stimuli/Social4.png,stimuli/Nonsocial3.png,stimuli/Nonsocial4.png,"(0.7, -0.5)",test1,"(-0.7, 0.5)",test1,0,0,0,0,0,2,2,6,,,,,,79.02351969992742,l,0.504400699865073,correct,,3,A,2024-04-08_13h12.05.946,gca_discrimination2,2022.2.4,143.96961612587828,
positions.xlsx,stimuli.xlsx,test.xlsx,stimuli/Test1.png,stimuli/Test2.png,stimuli/Social1.png,stimuli/Social2.png,stimuli/Nonsocial1.png,stimuli/Nonsocial2.png,stimuli/Social3.png,stimuli/Social4.png,stimuli/Nonsocial3.png,stimuli/Nonsocial4.png,"(0.7, 0.5)",test2,"(0.7, -0.5)",test1,0,0,0,0,0,3,3,5,,,,,,83.78023179993033,ä,0.5091552999801934,correct,,3,A,2024-04-08_13h12.05.946,gca_discrimination2,2022.2.4,143.96961612587828,
positions.xlsx,stimuli.xlsx,test.xlsx,stimuli/Test1.png,stimuli/Test2.png,stimuli/Social1.png,stimuli/Social2.png,stimuli/Nonsocial1.png,stimuli/Nonsocial2.png,stimuli/Social3.png,stimuli/Social4.png,stimuli/Nonsocial3.png,stimuli/Nonsocial4.png,"(-0.7, 0.5)",test1,"(0.7, -0.5)",test1,0,0,0,0,0,4,4,2,,,,,,88.59947089990601,l,1.1126916003413498,correct,,3,A,2024-04-08_13h12.05.946,gca_discrimination2,2022.2.4,143.96961612587828,
positions.xlsx,stimuli.xlsx,test.xlsx,stimuli/Test1.png,stimuli/Test2.png,stimuli/Social1.png,stimuli/Social2.png,stimuli/Nonsocial1.png,stimuli/Nonsocial2.png,stimuli/Social3.png,stimuli/Social4.png,stimuli/Nonsocial3.png,stimuli/Nonsocial4.png,"(0.7, 0.5)",test2,"(0.7, -0.5)",test2,0,0,0,0,0,5,5,3,,,,,,93.90481590013951,None,,no answer,,3,A,2024-04-08_13h12.05.946,gca_discrimination2,2022.2.4,143.96961612587828,
positions.xlsx,stimuli.xlsx,test.xlsx,stimuli/Test1.png,stimuli/Test2.png,stimuli/Social1.png,stimuli/Social2.png,stimuli/Nonsocial1.png,stimuli/Nonsocial2.png,stimuli/Social3.png,stimuli/Social4.png,stimuli/Nonsocial3.png,stimuli/Nonsocial4.png,"(-0.7, 0.5)",test2,"(-0.7, -0.5)",test2,0,0,0,0,0,6,6,4,,,,,,100.11289899982512,l,0.5355679001659155,correct,,3,A,2024-04-08_13h12.05.946,gca_discrimination2,2022.2.4,143.96961612587828,
positions.xlsx,stimuli.xlsx,test.xlsx,stimuli/Test1.png,stimuli/Test2.png,stimuli/Social1.png,stimuli/Social2.png,stimuli/Nonsocial1.png,stimuli/Nonsocial2.png,stimuli/Social3.png,stimuli/Social4.png,stimuli/Nonsocial3.png,stimuli/Nonsocial4.png,"(-0.7, -0.5)",test2,"(0.7, 0.5)",test2,0,0,0,0,0,7,7,8,,,,,,104.64044689992443,l,0.376042400021106,correct,,3,A,2024-04-08_13h12.05.946,gca_discrimination2,2022.2.4,143.96961612587828,
positions.xlsx,stimuli.xlsx,test.xlsx,stimuli/Test1.png,stimuli/Test2.png,stimuli/Social1.png,stimuli/Social2.png,stimuli/Nonsocial1.png,stimuli/Nonsocial2.png,stimuli/Social3.png,stimuli/Social4.png,stimuli/Nonsocial3.png,stimuli/Nonsocial4.png,"(0.7, -0.5)",test1,"(-0.7, -0.5)",test1,0,0,0,0,0,8,8,0,,,,,,108.95277820015326,l,0.38456259993836284,correct,,3,A,2024-04-08_13h12.05.946,gca_discrimination2,2022.2.4,143.96961612587828,
positions.xlsx,stimuli.xlsx,test.xlsx,stimuli/Test1.png,stimuli/Test2.png,stimuli/Social1.png,stimuli/Social2.png,stimuli/Nonsocial1.png,stimuli/Nonsocial2.png,stimuli/Social3.png,stimuli/Social4.png,stimuli/Nonsocial3.png,stimuli/Nonsocial4.png,"(-0.7, 0.5)",test2,"(0.7, 0.5)",test2,0,0,0,0,0,9,9,1,,,,,,113.48732730001211,l,0.5381947001442313,correct,,3,A,2024-04-08_13h12.05.946,gca_discrimination2,2022.2.4,143.96961612587828,
positions.xlsx,stimuli.xlsx,test.xlsx,stimuli/Test1.png,stimuli/Test2.png,stimuli/Social1.png,stimuli/Social2.png,stimuli/Nonsocial1.png,stimuli/Nonsocial2.png,stimuli/Social3.png,stimuli/Social4.png,stimuli/Nonsocial3.png,stimuli/Nonsocial4.png,"(0.7, -0.5)",cs_pos_s_new,"(0.7, 0.5)",cs_neg_s_new,0,0,0,0,,,,,0,0,0,9,,132.13931019976735,ä,1.3980513997375965,correct,116.76496679987758,3,A,2024-04-08_13h12.05.946,gca_discrimination2,2022.2.4,143.96961612587828,
positions.xlsx,stimuli.xlsx,test.xlsx,stimuli/Test1.png,stimuli/Test2.png,stimuli/Social1.png,stimuli/Social2.png,stimuli/Nonsocial1.png,stimuli/Nonsocial2.png,stimuli/Social3.png,stimuli/Social4.png,stimuli/Nonsocial3.png,stimuli/Nonsocial4.png,"(0.7, -0.5)",cs_pos_s_new,"(0.7, 0.5)",cs_pos_s_new,0,0,0,0,,,,,0,1,1,61,,135.85442260000855,l,0.5707589001394808,correct,,3,A,2024-04-08_13h12.05.946,gca_discrimination2,2022.2.4,143.96961612587828,
positions.xlsx,stimuli.xlsx,test.xlsx,stimuli/Test1.png,stimuli/Test2.png,stimuli/Social1.png,stimuli/Social2.png,stimuli/Nonsocial1.png,stimuli/Nonsocial2.png,stimuli/Social3.png,stimuli/Social4.png,stimuli/Nonsocial3.png,stimuli/Nonsocial4.png,"(-0.7, -0.5)",cs_neg_s_new,"(0.7, 0.5)",cs_pos_s,0,0,0,0,,,,,0,2,2,5,,139.0487538999878,l,0.8394128996878862,wrong,,3,A,2024-04-08_13h12.05.946,gca_discrimination2,2022.2.4,143.96961612587828,
positions.xlsx,stimuli.xlsx,test.xlsx,stimuli/Test1.png,stimuli/Test2.png,stimuli/Social1.png,stimuli/Social2.png,stimuli/Nonsocial1.png,stimuli/Nonsocial2.png,stimuli/Social3.png,stimuli/Social4.png,stimuli/Nonsocial3.png,stimuli/Nonsocial4.png,"(-0.7, 0.5)",cs_neg_ns,"(0.7, 0.5)",cs_pos_ns,0,0,0,0,,,,,0,3,3,37,,142.44446260016412,ä,0.8594060000032187,correct,,3,A,2024-04-08_13h12.05.946,gca_discrimination2,2022.2.4,143.96961612587828,
positions.xlsx,stimuli.xlsx,test.xlsx,stimuli/Test1.png,stimuli/Test2.png,stimuli/Social1.png,stimuli/Social2.png,stimuli/Nonsocial1.png,stimuli/Nonsocial2.png,stimuli/Social3.png,stimuli/Social4.png,stimuli/Nonsocial3.png,stimuli/Nonsocial4.png,"(0.7, 0.5)",cs_neg_s,"(-0.7, 0.5)",cs_neg_s,0,0,0,0,,,,,0,4,4,60,,145.43041090015322,l,1.1216993001289666,correct,,3,A,2024-04-08_13h12.05.946,gca_discrimination2,2022.2.4,143.96961612587828,
positions.xlsx,stimuli.xlsx,test.xlsx,stimuli/Test1.png,stimuli/Test2.png,stimuli/Social1.png,stimuli/Social2.png,stimuli/Nonsocial1.png,stimuli/Nonsocial2.png,stimuli/Social3.png,stimuli/Social4.png,stimuli/Nonsocial3.png,stimuli/Nonsocial4.png,"(-0.7, -0.5)",cs_pos_s_new,"(0.7, 0.5)",cs_neg_s,0,0,0,0,,,,,0,5,5,2,,149.16642710007727,ä,0.8739014999009669,correct,,3,A,2024-04-08_13h12.05.946,gca_discrimination2,2022.2.4,143.96961612587828,
positions.xlsx,stimuli.xlsx,test.xlsx,stimuli/Test1.png,stimuli/Test2.png,stimuli/Social1.png,stimuli/Social2.png,stimuli/Nonsocial1.png,stimuli/Nonsocial2.png,stimuli/Social3.png,stimuli/Social4.png,stimuli/Nonsocial3.png,stimuli/Nonsocial4.png,"(-0.7, 0.5)",cs_pos_ns_new,"(0.7, 0.5)",cs_neg_ns,0,0,0,0,,,,,0,6,6,41,,152.32605329994112,ä,0.7619263003580272,correct,,3,A,2024-04-08_13h12.05.946,gca_discrimination2,2022.2.4,143.96961612587828,
positions.xlsx,stimuli.xlsx,test.xlsx,stimuli/Test1.png,stimuli/Test2.png,stimuli/Social1.png,stimuli/Social2.png,stimuli/Nonsocial1.png,stimuli/Nonsocial2.png,stimuli/Social3.png,stimuli/Social4.png,stimuli/Nonsocial3.png,stimuli/Nonsocial4.png,"(-0.7, 0.5)",cs_neg_ns,"(-0.7, -0.5)",cs_neg_ns,0,0,0,0,,,,,0,7,7,82,,155.49946659989655,l,0.7649435000494123,correct,,3,A,2024-04-08_13h12.05.946,gca_discrimination2,2022.2.4,143.96961612587828,
positions.xlsx,stimuli.xlsx,test.xlsx,stimuli/Test1.png,stimuli/Test2.png,stimuli/Social1.png,stimuli/Social2.png,stimuli/Nonsocial1.png,stimuli/Nonsocial2.png,stimuli/Social3.png,stimuli/Social4.png,stimuli/Nonsocial3.png,stimuli/Nonsocial4.png,"(-0.7, -0.5)",cs_pos_ns,"(0.7, 0.5)",cs_pos_ns,0,0,0,0,,,,,0,8,8,73,,158.90210229996592,l,0.6340197999961674,correct,,3,A,2024-04-08_13h12.05.946,gca_discrimination2,2022.2.4,143.96961612587828,
positions.xlsx,stimuli.xlsx,test.xlsx,stimuli/Test1.png,stimuli/Test2.png,stimuli/Social1.png,stimuli/Social2.png,stimuli/Nonsocial1.png,stimuli/Nonsocial2.png,stimuli/Social3.png,stimuli/Social4.png,stimuli/Nonsocial3.png,stimuli/Nonsocial4.png,"(0.7, -0.5)",cs_pos_s,"(0.7, 0.5)",cs_pos_s,0,0,0,0,,,,,0,9,9,58,,162.06862899987027,l,0.6996817998588085,correct,,3,A,2024-04-08_13h12.05.946,gca_discrimination2,2022.2.4,143.96961612587828,
positions.xlsx,stimuli.xlsx,test.xlsx,stimuli/Test1.png,stimuli/Test2.png,stimuli/Social1.png,stimuli/Social2.png,stimuli/Nonsocial1.png,stimuli/Nonsocial2.png,stimuli/Social3.png,stimuli/Social4.png,stimuli/Nonsocial3.png,stimuli/Nonsocial4.png,"(-0.7, 0.5)",cs_pos_s,"(0.7, -0.5)",cs_pos_s,0,0,0,0,,,,,0,10,10,55,,165.54766859998927,l,0.5648643998429179,correct,,3,A,2024-04-08_13h12.05.946,gca_discrimination2,2022.2.4,143.96961612587828,
positions.xlsx,stimuli.xlsx,test.xlsx,stimuli/Test1.png,stimuli/Test2.png,stimuli/Social1.png,stimuli/Social2.png,stimuli/Nonsocial1.png,stimuli/Nonsocial2.png,stimuli/Social3.png,stimuli/Social4.png,stimuli/Nonsocial3.png,stimuli/Nonsocial4.png,"(0.7, 0.5)",cs_pos_ns_new,"(-0.7, 0.5)",cs_pos_ns_new,0,0,0,0,,,,,0,11,11,83,,168.02673859987408,l,0.390087999869138,correct,,3,A,2024-04-08_13h12.05.946,gca_discrimination2,2022.2.4,143.96961612587828,
positions.xlsx,stimuli.xlsx,test.xlsx,stimuli/Test1.png,stimuli/Test2.png,stimuli/Social1.png,stimuli/Social2.png,stimuli/Nonsocial1.png,stimuli/Nonsocial2.png,stimuli/Social3.png,stimuli/Social4.png,stimuli/Nonsocial3.png,stimuli/Nonsocial4.png,"(-0.7, 0.5)",cs_pos_ns,"(0.7, -0.5)",cs_pos_ns,0,0,0,0,,,,,0,12,12,75,,170.4294056999497,l,0.41196769988164306,correct,,3,A,2024-04-08_13h12.05.946,gca_discrimination2,2022.2.4,143.96961612587828,
positions.xlsx,stimuli.xlsx,test.xlsx,stimuli/Test1.png,stimuli/Test2.png,stimuli/Social1.png,stimuli/Social2.png,stimuli/Nonsocial1.png,stimuli/Nonsocial2.png,stimuli/Social3.png,stimuli/Social4.png,stimuli/Nonsocial3.png,stimuli/Nonsocial4.png,"(-0.7, 0.5)",cs_pos_ns_new,"(0.7, 0.5)",cs_pos_ns,0,0,0,0,,,,,0,13,13,43,,173.38068650010973,l,0.3316532000899315,wrong,,3,A,2024-04-08_13h12.05.946,gca_discrimination2,2022.2.4,143.96961612587828,
positions.xlsx,stimuli.xlsx,test.xlsx,stimuli/Test1.png,stimuli/Test2.png,stimuli/Social1.png,stimuli/Social2.png,stimuli/Nonsocial1.png,stimuli/Nonsocial2.png,stimuli/Social3.png,stimuli/Social4.png,stimuli/Nonsocial3.png,stimuli/Nonsocial4.png,"(-0.7, 0.5)",cs_pos_ns,"(-0.7, -0.5)",cs_neg_ns_new,0,0,0,0,,,,,0,14,14,40,,176.52638299996033,l,0.3854367998428643,wrong,,3,A,2024-04-08_13h12.05.946,gca_discrimination2,2022.2.4,143.96961612587828,
positions.xlsx,stimuli.xlsx,test.xlsx,stimuli/Test1.png,stimuli/Test2.png,stimuli/Social1.png,stimuli/Social2.png,stimuli/Nonsocial1.png,stimuli/Nonsocial2.png,stimuli/Social3.png,stimuli/Social4.png,stimuli/Nonsocial3.png,stimuli/Nonsocial4.png,"(-0.7, -0.5)",cs_neg_ns,"(0.7, -0.5)",cs_neg_ns,0,0,0,0,,,,,0,15,15,87,,179.0054272999987,l,0.4666069997474551,correct,,3,A,2024-04-08_13h12.05.946,gca_discrimination2,2022.2.4,143.96961612587828,
positions.xlsx,stimuli.xlsx,test.xlsx,stimuli/Test1.png,stimuli/Test2.png,stimuli/Social1.png,stimuli/Social2.png,stimuli/Nonsocial1.png,stimuli/Nonsocial2.png,stimuli/Social3.png,stimuli/Social4.png,stimuli/Nonsocial3.png,stimuli/Nonsocial4.png,"(-0.7, -0.5)",cs_neg_s_new,"(0.7, 0.5)",cs_pos_s_new,0,0,0,0,,,,,0,16,16,13,,181.57477669976652,ä,0.4571818998083472,correct,,3,A,2024-04-08_13h12.05.946,gca_discrimination2,2022.2.4,143.96961612587828,
positions.xlsx,stimuli.xlsx,test.xlsx,stimuli/Test1.png,stimuli/Test2.png,stimuli/Social1.png,stimuli/Social2.png,stimuli/Nonsocial1.png,stimuli/Nonsocial2.png,stimuli/Social3.png,stimuli/Social4.png,stimuli/Nonsocial3.png,stimuli/Nonsocial4.png,"(0.7, 0.5)",cs_pos_s,"(0.7, -0.5)",cs_neg_s_new,0,0,0,0,,,,,0,17,17,18,,184.44966739974916,l,0.590930899605155,wrong,,3,A,2024-04-08_13h12.05.946,gca_discrimination2,2022.2.4,143.96961612587828,
positions.xlsx,stimuli.xlsx,test.xlsx,stimuli/Test1.png,stimuli/Test2.png,stimuli/Social1.png,stimuli/Social2.png,stimuli/Nonsocial1.png,stimuli/Nonsocial2.png,stimuli/Social3.png,stimuli/Social4.png,stimuli/Nonsocial3.png,stimuli/Nonsocial4.png,"(-0.7, -0.5)",cs_neg_s_new,"(0.7, -0.5)",cs_neg_s,0,0,0,0,,,,,0,18,18,4,,187.72036479972303,l,0.4317145999521017,wrong,,3,A,2024-04-08_13h12.05.946,gca_discrimination2,2022.2.4,143.96961612587828,
positions.xlsx,stimuli.xlsx,test.xlsx,stimuli/Test1.png,stimuli/Test2.png,stimuli/Social1.png,stimuli/Social2.png,stimuli/Nonsocial1.png,stimuli/Nonsocial2.png,stimuli/Social3.png,stimuli/Social4.png,stimuli/Nonsocial3.png,stimuli/Nonsocial4.png,"(0.7, -0.5)",cs_pos_s,"(-0.7, 0.5)",cs_neg_s,0,0,0,0,,,,,0,19,19,17,,190.4980425001122,l,0.16724999994039536,wrong,,3,A,2024-04-08_13h12.05.946,gca_discrimination2,2022.2.4,143.96961612587828,
positions.xlsx,stimuli.xlsx,test.xlsx,stimuli/Test1.png,stimuli/Test2.png,stimuli/Social1.png,stimuli/Social2.png,stimuli/Nonsocial1.png,stimuli/Nonsocial2.png,stimuli/Social3.png,stimuli/Social4.png,stimuli/Nonsocial3.png,stimuli/Nonsocial4.png,"(0.7, -0.5)",cs_neg_s_new,"(0.7, 0.5)",cs_neg_s_new,0,0,0,0,,,,,0,20,20,50,,193.1576342000626,l,0.40269230026751757,correct,,3,A,2024-04-08_13h12.05.946,gca_discrimination2,2022.2.4,143.96961612587828,
positions.xlsx,stimuli.xlsx,test.xlsx,stimuli/Test1.png,stimuli/Test2.png,stimuli/Social1.png,stimuli/Social2.png,stimuli/Nonsocial1.png,stimuli/Nonsocial2.png,stimuli/Social3.png,stimuli/Social4.png,stimuli/Nonsocial3.png,stimuli/Nonsocial4.png,"(-0.7, -0.5)",cs_neg_s_new,"(-0.7, 0.5)",cs_pos_s_new,0,0,0,0,,,,,0,21,21,6,,195.4283869001083,ä,0.6682841000147164,correct,,3,A,2024-04-08_13h12.05.946,gca_discrimination2,2022.2.4,143.96961612587828,
positions.xlsx,stimuli.xlsx,test.xlsx,stimuli/Test1.png,stimuli/Test2.png,stimuli/Social1.png,stimuli/Social2.png,stimuli/Nonsocial1.png,stimuli/Nonsocial2.png,stimuli/Social3.png,stimuli/Social4.png,stimuli/Nonsocial3.png,stimuli/Nonsocial4.png,"(-0.7, 0.5)",cs_pos_s_new,"(-0.7, -0.5)",cs_pos_s,0,0,0,0,,,,,0,22,22,7,,198.2060543000698,ä,0.7143079000525177,correct,,3,A,2024-04-08_13h12.05.946,gca_discrimination2,2022.2.4,143.96961612587828,
positions.xlsx,stimuli.xlsx,test.xlsx,stimuli/Test1.png,stimuli/Test2.png,stimuli/Social1.png,stimuli/Social2.png,stimuli/Nonsocial1.png,stimuli/Nonsocial2.png,stimuli/Social3.png,stimuli/Social4.png,stimuli/Nonsocial3.png,stimuli/Nonsocial4.png,"(-0.7, 0.5)",cs_neg_ns,"(0.7, 0.5)",cs_neg_ns,0,0,0,0,,,,,0,23,23,77,,201.44202330010012,l,0.46186899999156594,correct,,3,A,2024-04-08_13h12.05.946,gca_discrimination2,2022.2.4,143.96961612587828,
positions.xlsx,stimuli.xlsx,test.xlsx,stimuli/Test1.png,stimuli/Test2.png,stimuli/Social1.png,stimuli/Social2.png,stimuli/Nonsocial1.png,stimuli/Nonsocial2.png,stimuli/Social3.png,stimuli/Social4.png,stimuli/Nonsocial3.png,stimuli/Nonsocial4.png,"(0.7, 0.5)",cs_neg_ns,"(0.7, -0.5)",cs_pos_ns_new,0,0,0,0,,,,,0,24,24,25,,204.49745299993083,ä,0.37542100017890334,correct,,3,A,2024-04-08_13h12.05.946,gca_discrimination2,2022.2.4,143.96961612587828,
positions.xlsx,stimuli.xlsx,test.xlsx,stimuli/Test1.png,stimuli/Test2.png,stimuli/Social1.png,stimuli/Social2.png,stimuli/Nonsocial1.png,stimuli/Nonsocial2.png,stimuli/Social3.png,stimuli/Social4.png,stimuli/Nonsocial3.png,stimuli/Nonsocial4.png,"(0.7, 0.5)",cs_pos_s_new,"(0.7, -0.5)",cs_neg_s,0,0,0,0,,,,,0,25,25,10,,206.87230450008065,ä,0.7114838003180921,correct,,3,A,2024-04-08_13h12.05.946,gca_discrimination2,2022.2.4,143.96961612587828,
positions.xlsx,stimuli.xlsx,test.xlsx,stimuli/Test1.png,stimuli/Test2.png,stimuli/Social1.png,stimuli/Social2.png,stimuli/Nonsocial1.png,stimuli/Nonsocial2.png,stimuli/Social3.png,stimuli/Social4.png,stimuli/Nonsocial3.png,stimuli/Nonsocial4.png,"(-0.7, 0.5)",cs_neg_s,"(-0.7, -0.5)",cs_neg_s,0,0,0,0,,,,,0,26,26,70,,209.6777923000045,ä,0.3866865998134017,wrong,,3,A,2024-04-08_13h12.05.946,gca_discrimination2,2022.2.4,143.96961612587828,
positions.xlsx,stimuli.xlsx,test.xlsx,stimuli/Test1.png,stimuli/Test2.png,stimuli/Social1.png,stimuli/Social2.png,stimuli/Nonsocial1.png,stimuli/Nonsocial2.png,stimuli/Social3.png,stimuli/Social4.png,stimuli/Nonsocial3.png,stimuli/Nonsocial4.png,"(-0.7, 0.5)",cs_neg_ns,"(0.7, -0.5)",cs_neg_ns,0,0,0,0,,,,,0,27,27,81,,212.2471186001785,l,0.43376970011740923,correct,,3,A,2024-04-08_13h12.05.946,gca_discrimination2,2022.2.4,143.96961612587828,
positions.xlsx,stimuli.xlsx,test.xlsx,stimuli/Test1.png,stimuli/Test2.png,stimuli/Social1.png,stimuli/Social2.png,stimuli/Nonsocial1.png,stimuli/Nonsocial2.png,stimuli/Social3.png,stimuli/Social4.png,stimuli/Nonsocial3.png,stimuli/Nonsocial4.png,"(0.7, 0.5)",cs_neg_ns,"(0.7, -0.5)",cs_neg_ns,0,0,0,0,,,,,0,28,28,95,,214.98312469990924,l,0.4577202000655234,correct,,3,A,2024-04-08_13h12.05.946,gca_discrimination2,2022.2.4,143.96961612587828,
positions.xlsx,stimuli.xlsx,test.xlsx,stimuli/Test1.png,stimuli/Test2.png,stimuli/Social1.png,stimuli/Social2.png,stimuli/Nonsocial1.png,stimuli/Nonsocial2.png,stimuli/Social3.png,stimuli/Social4.png,stimuli/Nonsocial3.png,stimuli/Nonsocial4.png,"(-0.7, 0.5)",cs_neg_ns_new,"(-0.7, -0.5)",cs_neg_ns,0,0,0,0,,,,,0,29,29,42,,217.58021900011227,ä,0.44477570010349154,correct,,3,A,2024-04-08_13h12.05.946,gca_discrimination2,2022.2.4,143.96961612587828,
positions.xlsx,stimuli.xlsx,test.xlsx,stimuli/Test1.png,stimuli/Test2.png,stimuli/Social1.png,stimuli/Social2.png,stimuli/Nonsocial1.png,stimuli/Nonsocial2.png,stimuli/Social3.png,stimuli/Social4.png,stimuli/Nonsocial3.png,stimuli/Nonsocial4.png,"(0.7, 0.5)",cs_neg_ns_new,"(-0.7, -0.5)",cs_neg_ns_new,0,0,0,0,,,,,0,30,30,94,,220.28153079980984,ä,0.8229180998168886,wrong,,3,A,2024-04-08_13h12.05.946,gca_discrimination2,2022.2.4,143.96961612587828,
positions.xlsx,stimuli.xlsx,test.xlsx,stimuli/Test1.png,stimuli/Test2.png,stimuli/Social1.png,stimuli/Social2.png,stimuli/Nonsocial1.png,stimuli/Nonsocial2.png,stimuli/Social3.png,stimuli/Social4.png,stimuli/Nonsocial3.png,stimuli/Nonsocial4.png,"(0.7, 0.5)",cs_neg_ns_new,"(-0.7, 0.5)",cs_neg_ns_new,0,0,0,0,,,,,0,31,31,74,,223.8924762001261,l,0.2676568999886513,correct,,3,A,2024-04-08_13h12.05.946,gca_discrimination2,2022.2.4,143.96961612587828,
positions.xlsx,stimuli.xlsx,test.xlsx,stimuli/Test1.png,stimuli/Test2.png,stimuli/Social1.png,stimuli/Social2.png,stimuli/Nonsocial1.png,stimuli/Nonsocial2.png,stimuli/Social3.png,stimuli/Social4.png,stimuli/Nonsocial3.png,stimuli/Nonsocial4.png,"(0.7, -0.5)",cs_neg_s_new,"(-0.7, 0.5)",cs_neg_s_new,0,0,0,0,,,,,0,32,32,71,,226.18407069984823,ä,0.6884047999046743,wrong,,3,A,2024-04-08_13h12.05.946,gca_discrimination2,2022.2.4,143.96961612587828,
positions.xlsx,stimuli.xlsx,test.xlsx,stimuli/Test1.png,stimuli/Test2.png,stimuli/Social1.png,stimuli/Social2.png,stimuli/Nonsocial1.png,stimuli/Nonsocial2.png,stimuli/Social3.png,stimuli/Social4.png,stimuli/Nonsocial3.png,stimuli/Nonsocial4.png,"(-0.7, -0.5)",cs_pos_ns_new,"(0.7, 0.5)",cs_neg_ns,0,0,0,0,,,,,0,33,33,28,,229.24642710015178,ä,0.6267555998638272,correct,,3,A,2024-04-08_13h12.05.946,gca_discrimination2,2022.2.4,143.96961612587828,
positions.xlsx,stimuli.xlsx,test.xlsx,stimuli/Test1.png,stimuli/Test2.png,stimuli/Social1.png,stimuli/Social2.png,stimuli/Nonsocial1.png,stimuli/Nonsocial2.png,stimuli/Social3.png,stimuli/Social4.png,stimuli/Nonsocial3.png,stimuli/Nonsocial4.png,"(-0.7, -0.5)",cs_neg_ns_new,"(-0.7, 0.5)",cs_neg_ns_new,0,0,0,0,,,,,0,34,34,79,,232.3018633001484,l,0.5220706998370588,correct,,3,A,2024-04-08_13h12.05.946,gca_discrimination2,2022.2.4,143.96961612587828,
positions.xlsx,stimuli.xlsx,test.xlsx,stimuli/Test1.png,stimuli/Test2.png,stimuli/Social1.png,stimuli/Social2.png,stimuli/Nonsocial1.png,stimuli/Nonsocial2.png,stimuli/Social3.png,stimuli/Social4.png,stimuli/Nonsocial3.png,stimuli/Nonsocial4.png,"(0.7, 0.5)",cs_neg_ns,"(-0.7, -0.5)",cs_neg_ns,0,0,0,0,,,,,0,35,35,80,,235.26700360001996,l,0.91805350035429,correct,,3,A,2024-04-08_13h12.05.946,gca_discrimination2,2022.2.4,143.96961612587828,
positions.xlsx,stimuli.xlsx,test.xlsx,stimuli/Test1.png,stimuli/Test2.png,stimuli/Social1.png,stimuli/Social2.png,stimuli/Nonsocial1.png,stimuli/Nonsocial2.png,stimuli/Social3.png,stimuli/Social4.png,stimuli/Nonsocial3.png,stimuli/Nonsocial4.png,"(-0.7, 0.5)",cs_neg_s,"(0.7, 0.5)",cs_neg_s,0,0,0,0,,,,,0,36,36,48,,238.2668869001791,ä,0.733906100038439,wrong,,3,A,2024-04-08_13h12.05.946,gca_discrimination2,2022.2.4,143.96961612587828,
positions.xlsx,stimuli.xlsx,test.xlsx,stimuli/Test1.png,stimuli/Test2.png,stimuli/Social1.png,stimuli/Social2.png,stimuli/Nonsocial1.png,stimuli/Nonsocial2.png,stimuli/Social3.png,stimuli/Social4.png,stimuli/Nonsocial3.png,stimuli/Nonsocial4.png,"(0.7, 0.5)",cs_pos_ns,"(0.7, -0.5)",cs_neg_ns_new,0,0,0,0,,,,,0,37,37,44,,241.07927149999887,l,0.5368015002459288,wrong,,3,A,2024-04-08_13h12.05.946,gca_discrimination2,2022.2.4,143.96961612587828,
positions.xlsx,stimuli.xlsx,test.xlsx,stimuli/Test1.png,stimuli/Test2.png,stimuli/Social1.png,stimuli/Social2.png,stimuli/Nonsocial1.png,stimuli/Nonsocial2.png,stimuli/Social3.png,stimuli/Social4.png,stimuli/Nonsocial3.png,stimuli/Nonsocial4.png,"(-0.7, 0.5)",cs_pos_s_new,"(0.7, 0.5)",cs_neg_s,0,0,0,0,,,,,0,38,38,1,,244.37775890016928,ä,0.6079918001778424,correct,,3,A,2024-04-08_13h12.05.946,gca_discrimination2,2022.2.4,143.96961612587828,
positions.xlsx,stimuli.xlsx,test.xlsx,stimuli/Test1.png,stimuli/Test2.png,stimuli/Social1.png,stimuli/Social2.png,stimuli/Nonsocial1.png,stimuli/Nonsocial2.png,stimuli/Social3.png,stimuli/Social4.png,stimuli/Nonsocial3.png,stimuli/Nonsocial4.png,"(0.7, 0.5)",cs_pos_s_new,"(-0.7, 0.5)",cs_neg_s,0,0,0,0,,,,,0,39,39,14,,247.7664916999638,ä,0.5304664997383952,correct,,3,A,2024-04-08_13h12.05.946,gca_discrimination2,2022.2.4,143.96961612587828,
positions.xlsx,stimuli.xlsx,test.xlsx,stimuli/Test1.png,stimuli/Test2.png,stimuli/Social1.png,stimuli/Social2.png,stimuli/Nonsocial1.png,stimuli/Nonsocial2.png,stimuli/Social3.png,stimuli/Social4.png,stimuli/Nonsocial3.png,stimuli/Nonsocial4.png,"(0.7, -0.5)",cs_pos_s,"(0.7, 0.5)",cs_neg_s_new,0,0,0,0,,,,,0,40,40,16,,250.8150343997404,ä,0.6261559999547899,correct,,3,A,2024-04-08_13h12.05.946,gca_discrimination2,2022.2.4,143.96961612587828,
positions.xlsx,stimuli.xlsx,test.xlsx,stimuli/Test1.png,stimuli/Test2.png,stimuli/Social1.png,stimuli/Social2.png,stimuli/Nonsocial1.png,stimuli/Nonsocial2.png,stimuli/Social3.png,stimuli/Social4.png,stimuli/Nonsocial3.png,stimuli/Nonsocial4.png,"(0.7, -0.5)",cs_neg_ns_new,"(0.7, 0.5)",cs_neg_ns,0,0,0,0,,,,,0,41,41,30,,254.1551370001398,ä,0.6774756000377238,correct,,3,A,2024-04-08_13h12.05.946,gca_discrimination2,2022.2.4,143.96961612587828,
positions.xlsx,stimuli.xlsx,test.xlsx,stimuli/Test1.png,stimuli/Test2.png,stimuli/Social1.png,stimuli/Social2.png,stimuli/Nonsocial1.png,stimuli/Nonsocial2.png,stimuli/Social3.png,stimuli/Social4.png,stimuli/Nonsocial3.png,stimuli/Nonsocial4.png,"(-0.7, 0.5)",cs_neg_ns_new,"(0.7, 0.5)",cs_neg_ns,0,0,0,0,,,,,0,42,42,31,,257.41887030005455,ä,0.4386095004156232,correct,,3,A,2024-04-08_13h12.05.946,gca_discrimination2,2022.2.4,143.96961612587828,
positions.xlsx,stimuli.xlsx,test.xlsx,stimuli/Test1.png,stimuli/Test2.png,stimuli/Social1.png,stimuli/Social2.png,stimuli/Nonsocial1.png,stimuli/Nonsocial2.png,stimuli/Social3.png,stimuli/Social4.png,stimuli/Nonsocial3.png,stimuli/Nonsocial4.png,"(0.7, 0.5)",cs_pos_ns_new,"(-0.7, 0.5)",cs_neg_ns_new,0,0,0,0,,,,,0,43,43,34,,260.21738559985533,l,0.5589632000774145,wrong,,3,A,2024-04-08_13h12.05.946,gca_discrimination2,2022.2.4,143.96961612587828,
positions.xlsx,stimuli.xlsx,test.xlsx,stimuli/Test1.png,stimuli/Test2.png,stimuli/Social1.png,stimuli/Social2.png,stimuli/Nonsocial1.png,stimuli/Nonsocial2.png,stimuli/Social3.png,stimuli/Social4.png,stimuli/Nonsocial3.png,stimuli/Nonsocial4.png,"(0.7, -0.5)",cs_pos_s_new,"(-0.7, 0.5)",cs_pos_s,0,0,0,0,,,,,0,44,44,23,,262.7242335998453,ä,0.6847586999647319,correct,,3,A,2024-04-08_13h12.05.946,gca_discrimination2,2022.2.4,143.96961612587828,
positions.xlsx,stimuli.xlsx,test.xlsx,stimuli/Test1.png,stimuli/Test2.png,stimuli/Social1.png,stimuli/Social2.png,stimuli/Nonsocial1.png,stimuli/Nonsocial2.png,stimuli/Social3.png,stimuli/Social4.png,stimuli/Nonsocial3.png,stimuli/Nonsocial4.png,"(-0.7, -0.5)",cs_pos_s,"(-0.7, 0.5)",cs_pos_s,0,0,0,0,,,,,0,45,45,65,,265.60604419978335,l,0.6502921995706856,correct,,3,A,2024-04-08_13h12.05.946,gca_discrimination2,2022.2.4,143.96961612587828,
positions.xlsx,stimuli.xlsx,test.xlsx,stimuli/Test1.png,stimuli/Test2.png,stimuli/Social1.png,stimuli/Social2.png,stimuli/Nonsocial1.png,stimuli/Nonsocial2.png,stimuli/Social3.png,stimuli/Social4.png,stimuli/Nonsocial3.png,stimuli/Nonsocial4.png,"(0.7, -0.5)",cs_neg_ns_new,"(-0.7, -0.5)",cs_neg_ns_new,0,0,0,0,,,,,0,46,46,85,,268.8420225000009,l,0.5498053003102541,correct,,3,A,2024-04-08_13h12.05.946,gca_discrimination2,2022.2.4,143.96961612587828,
positions.xlsx,stimuli.xlsx,test.xlsx,stimuli/Test1.png,stimuli/Test2.png,stimuli/Social1.png,stimuli/Social2.png,stimuli/Nonsocial1.png,stimuli/Nonsocial2.png,stimuli/Social3.png,stimuli/Social4.png,stimuli/Nonsocial3.png,stimuli/Nonsocial4.png,"(0.7, -0.5)",cs_neg_s,"(0.7, 0.5)",cs_neg_s,0,0,0,0,,,,,0,47,47,56,,271.97384470002726,l,0.4027837999165058,correct,,3,A,2024-04-08_13h12.05.946,gca_discrimination2,2022.2.4,143.96961612587828,
positions.xlsx,stimuli.xlsx,test.xlsx,stimuli/Test1.png,stimuli/Test2.png,stimuli/Social1.png,stimuli/Social2.png,stimuli/Nonsocial1.png,stimuli/Nonsocial2.png,stimuli/Social3.png,stimuli/Social4.png,stimuli/Nonsocial3.png,stimuli/Nonsocial4.png,"(-0.7, 0.5)",cs_neg_s,"(0.7, -0.5)",cs_neg_s_new,0,0,0,0,,,,,0,48,48,21,,274.82788729993626,l,0.5572635000571609,wrong,,3,A,2024-04-08_13h12.05.946,gca_discrimination2,2022.2.4,143.96961612587828,
positions.xlsx,stimuli.xlsx,test.xlsx,stimuli/Test1.png,stimuli/Test2.png,stimuli/Social1.png,stimuli/Social2.png,stimuli/Nonsocial1.png,stimuli/Nonsocial2.png,stimuli/Social3.png,stimuli/Social4.png,stimuli/Nonsocial3.png,stimuli/Nonsocial4.png,"(0.7, 0.5)",cs_pos_s,"(-0.7, -0.5)",cs_pos_s,0,0,0,0,,,,,0,49,49,49,,277.60555419977754,ä,0.4350767000578344,wrong,,3,A,2024-04-08_13h12.05.946,gca_discrimination2,2022.2.4,143.96961612587828,
positions.xlsx,stimuli.xlsx,test.xlsx,stimuli/Test1.png,stimuli/Test2.png,stimuli/Social1.png,stimuli/Social2.png,stimuli/Nonsocial1.png,stimuli/Nonsocial2.png,stimuli/Social3.png,stimuli/Social4.png,stimuli/Nonsocial3.png,stimuli/Nonsocial4.png,"(0.7, 0.5)",cs_pos_s,"(-0.7, 0.5)",cs_pos_s,0,0,0,0,,,,,0,50,50,51,,280.74428900005296,ä,0.4961387002840638,wrong,,3,A,2024-04-08_13h12.05.946,gca_discrimination2,2022.2.4,143.96961612587828,
positions.xlsx,stimuli.xlsx,test.xlsx,stimuli/Test1.png,stimuli/Test2.png,stimuli/Social1.png,stimuli/Social2.png,stimuli/Nonsocial1.png,stimuli/Nonsocial2.png,stimuli/Social3.png,stimuli/Social4.png,stimuli/Nonsocial3.png,stimuli/Nonsocial4.png,"(0.7, -0.5)",cs_neg_s,"(-0.7, -0.5)",cs_neg_s,0,0,0,0,,,,,0,51,51,54,,283.778899199795,ä,1.013502400368452,wrong,,3,A,2024-04-08_13h12.05.946,gca_discrimination2,2022.2.4,143.96961612587828,
positions.xlsx,stimuli.xlsx,test.xlsx,stimuli/Test1.png,stimuli/Test2.png,stimuli/Social1.png,stimuli/Social2.png,stimuli/Nonsocial1.png,stimuli/Nonsocial2.png,stimuli/Social3.png,stimuli/Social4.png,stimuli/Nonsocial3.png,stimuli/Nonsocial4.png,"(-0.7, 0.5)",cs_pos_ns,"(-0.7, -0.5)",cs_pos_ns_new,0,0,0,0,,,,,0,52,52,24,,286.6190561000258,ä,0.6214676997624338,correct,,3,A,2024-04-08_13h12.05.946,gca_discrimination2,2022.2.4,143.96961612587828,
positions.xlsx,stimuli.xlsx,test.xlsx,stimuli/Test1.png,stimuli/Test2.png,stimuli/Social1.png,stimuli/Social2.png,stimuli/Nonsocial1.png,stimuli/Nonsocial2.png,stimuli/Social3.png,stimuli/Social4.png,stimuli/Nonsocial3.png,stimuli/Nonsocial4.png,"(0.7, -0.5)",cs_neg_s,"(-0.7, 0.5)",cs_neg_s_new,0,0,0,0,,,,,0,53,53,22,,289.78561169980094,l,1.0944208996370435,wrong,,3,A,2024-04-08_13h12.05.946,gca_discrimination2,2022.2.4,143.96961612587828,
positions.xlsx,stimuli.xlsx,test.xlsx,stimuli/Test1.png,stimuli/Test2.png,stimuli/Social1.png,stimuli/Social2.png,stimuli/Nonsocial1.png,stimuli/Nonsocial2.png,stimuli/Social3.png,stimuli/Social4.png,stimuli/Nonsocial3.png,stimuli/Nonsocial4.png,"(-0.7, -0.5)",cs_pos_ns,"(0.7, -0.5)",cs_neg_ns_new,0,0,0,0,,,,,0,54,54,32,,293.097974000033,ä,0.5260611004196107,correct,,3,A,2024-04-08_13h12.05.946,gca_discrimination2,2022.2.4,143.96961612587828,
positions.xlsx,stimuli.xlsx,test.xlsx,stimuli/Test1.png,stimuli/Test2.png,stimuli/Social1.png,stimuli/Social2.png,stimuli/Nonsocial1.png,stimuli/Nonsocial2.png,stimuli/Social3.png,stimuli/Social4.png,stimuli/Nonsocial3.png,stimuli/Nonsocial4.png,"(0.7, -0.5)",cs_pos_ns_new,"(-0.7, 0.5)",cs_pos_ns_new,0,0,0,0,,,,,0,55,55,76,,295.97285720007494,l,0.49913210002705455,correct,,3,A,2024-04-08_13h12.05.946,gca_discrimination2,2022.2.4,143.96961612587828,
positions.xlsx,stimuli.xlsx,test.xlsx,stimuli/Test1.png,stimuli/Test2.png,stimuli/Social1.png,stimuli/Social2.png,stimuli/Nonsocial1.png,stimuli/Nonsocial2.png,stimuli/Social3.png,stimuli/Social4.png,stimuli/Nonsocial3.png,stimuli/Nonsocial4.png,"(0.7, 0.5)",cs_neg_s_new,"(0.7, -0.5)",cs_pos_s,0,0,0,0,,,,,0,56,56,12,,298.67413099994883,ä,0.5578707000240684,correct,,3,A,2024-04-08_13h12.05.946,gca_discrimination2,2022.2.4,143.96961612587828,
positions.xlsx,stimuli.xlsx,test.xlsx,stimuli/Test1.png,stimuli/Test2.png,stimuli/Social1.png,stimuli/Social2.png,stimuli/Nonsocial1.png,stimuli/Nonsocial2.png,stimuli/Social3.png,stimuli/Social4.png,stimuli/Nonsocial3.png,stimuli/Nonsocial4.png,"(-0.7, -0.5)",cs_pos_ns,"(-0.7, 0.5)",cs_neg_ns,0,0,0,0,,,,,0,57,57,36,,301.7295630001463,ä,0.6385412001982331,correct,,3,A,2024-04-08_13h12.05.946,gca_discrimination2,2022.2.4,143.96961612587828,
positions.xlsx,stimuli.xlsx,test.xlsx,stimuli/Test1.png,stimuli/Test2.png,stimuli/Social1.png,stimuli/Social2.png,stimuli/Nonsocial1.png,stimuli/Nonsocial2.png,stimuli/Social3.png,stimuli/Social4.png,stimuli/Nonsocial3.png,stimuli/Nonsocial4.png,"(-0.7, -0.5)",cs_neg_s_new,"(-0.7, 0.5)",cs_neg_s_new,0,0,0,0,,,,,0,58,58,67,,304.8058166997507,l,0.9382809000089765,correct,,3,A,2024-04-08_13h12.05.946,gca_discrimination2,2022.2.4,143.96961612587828,
positions.xlsx,stimuli.xlsx,test.xlsx,stimuli/Test1.png,stimuli/Test2.png,stimuli/Social1.png,stimuli/Social2.png,stimuli/Nonsocial1.png,stimuli/Nonsocial2.png,stimuli/Social3.png,stimuli/Social4.png,stimuli/Nonsocial3.png,stimuli/Nonsocial4.png,"(-0.7, -0.5)",cs_neg_s_new,"(-0.7, 0.5)",cs_neg_s,0,0,0,0,,,,,0,59,59,3,,307.784838499967,ä,0.5111925001256168,correct,,3,A,2024-04-08_13h12.05.946,gca_discrimination2,2022.2.4,143.96961612587828,
positions.xlsx,stimuli.xlsx,test.xlsx,stimuli/Test1.png,stimuli/Test2.png,stimuli/Social1.png,stimuli/Social2.png,stimuli/Nonsocial1.png,stimuli/Nonsocial2.png,stimuli/Social3.png,stimuli/Social4.png,stimuli/Nonsocial3.png,stimuli/Nonsocial4.png,"(-0.7, -0.5)",cs_neg_ns_new,"(0.7, 0.5)",cs_neg_ns,0,0,0,0,,,,,0,60,60,29,,310.65978109976277,ä,0.5979726002551615,correct,,3,A,2024-04-08_13h12.05.946,gca_discrimination2,2022.2.4,143.96961612587828,
positions.xlsx,stimuli.xlsx,test.xlsx,stimuli/Test1.png,stimuli/Test2.png,stimuli/Social1.png,stimuli/Social2.png,stimuli/Nonsocial1.png,stimuli/Nonsocial2.png,stimuli/Social3.png,stimuli/Social4.png,stimuli/Nonsocial3.png,stimuli/Nonsocial4.png,"(-0.7, -0.5)",cs_neg_ns_new,"(0.7, -0.5)",cs_pos_ns_new,0,0,0,0,,,,,0,61,61,26,,313.7012986000627,ä,0.7551493998616934,correct,,3,A,2024-04-08_13h12.05.946,gca_discrimination2,2022.2.4,143.96961612587828,
positions.xlsx,stimuli.xlsx,test.xlsx,stimuli/Test1.png,stimuli/Test2.png,stimuli/Social1.png,stimuli/Social2.png,stimuli/Nonsocial1.png,stimuli/Nonsocial2.png,stimuli/Social3.png,stimuli/Social4.png,stimuli/Nonsocial3.png,stimuli/Nonsocial4.png,"(-0.7, 0.5)",cs_pos_s_new,"(0.7, 0.5)",cs_pos_s_new,0,0,0,0,,,,,0,62,62,57,,316.61784659978,l,0.5349381999112666,correct,,3,A,2024-04-08_13h12.05.946,gca_discrimination2,2022.2.4,143.96961612587828,
positions.xlsx,stimuli.xlsx,test.xlsx,stimuli/Test1.png,stimuli/Test2.png,stimuli/Social1.png,stimuli/Social2.png,stimuli/Nonsocial1.png,stimuli/Nonsocial2.png,stimuli/Social3.png,stimuli/Social4.png,stimuli/Nonsocial3.png,stimuli/Nonsocial4.png,"(-0.7, 0.5)",cs_pos_s,"(-0.7, -0.5)",cs_neg_s,0,0,0,0,,,,,0,63,63,11,,319.61773349996656,ä,0.46234550001099706,correct,,3,A,2024-04-08_13h12.05.946,gca_discrimination2,2022.2.4,143.96961612587828,
positions.xlsx,stimuli.xlsx,test.xlsx,stimuli/Test1.png,stimuli/Test2.png,stimuli/Social1.png,stimuli/Social2.png,stimuli/Nonsocial1.png,stimuli/Nonsocial2.png,stimuli/Social3.png,stimuli/Social4.png,stimuli/Nonsocial3.png,stimuli/Nonsocial4.png,"(-0.7, 0.5)",cs_neg_ns_new,"(0.7, -0.5)",cs_pos_ns_new,0,0,0,0,,,,,0,64,64,27,,322.0759497000836,ä,0.5569297997280955,correct,,3,A,2024-04-08_13h12.05.946,gca_discrimination2,2022.2.4,143.96961612587828,
positions.xlsx,stimuli.xlsx,test.xlsx,stimuli/Test1.png,stimuli/Test2.png,stimuli/Social1.png,stimuli/Social2.png,stimuli/Nonsocial1.png,stimuli/Nonsocial2.png,stimuli/Social3.png,stimuli/Social4.png,stimuli/Nonsocial3.png,stimuli/Nonsocial4.png,"(-0.7, -0.5)",cs_neg_s,"(-0.7, 0.5)",cs_pos_s,0,0,0,0,,,,,0,65,65,8,,325.07582530006766,ä,0.5252606999129057,correct,,3,A,2024-04-08_13h12.05.946,gca_discrimination2,2022.2.4,143.96961612587828,
positions.xlsx,stimuli.xlsx,test.xlsx,stimuli/Test1.png,stimuli/Test2.png,stimuli/Social1.png,stimuli/Social2.png,stimuli/Nonsocial1.png,stimuli/Nonsocial2.png,stimuli/Social3.png,stimuli/Social4.png,stimuli/Nonsocial3.png,stimuli/Nonsocial4.png,"(0.7, -0.5)",cs_neg_s,"(-0.7, 0.5)",cs_neg_s,0,0,0,0,,,,,0,66,66,53,,327.5479711997323,l,0.6682500001043081,correct,,3,A,2024-04-08_13h12.05.946,gca_discrimination2,2022.2.4,143.96961612587828,
positions.xlsx,stimuli.xlsx,test.xlsx,stimuli/Test1.png,stimuli/Test2.png,stimuli/Social1.png,stimuli/Social2.png,stimuli/Nonsocial1.png,stimuli/Nonsocial2.png,stimuli/Social3.png,stimuli/Social4.png,stimuli/Nonsocial3.png,stimuli/Nonsocial4.png,"(0.7, -0.5)",cs_neg_ns,"(-0.7, -0.5)",cs_neg_ns,0,0,0,0,,,,,0,67,67,72,,330.7978150001727,l,0.8182279001921415,correct,,3,A,2024-04-08_13h12.05.946,gca_discrimination2,2022.2.4,143.96961612587828,
positions.xlsx,stimuli.xlsx,test.xlsx,stimuli/Test1.png,stimuli/Test2.png,stimuli/Social1.png,stimuli/Social2.png,stimuli/Nonsocial1.png,stimuli/Nonsocial2.png,stimuli/Social3.png,stimuli/Social4.png,stimuli/Nonsocial3.png,stimuli/Nonsocial4.png,"(-0.7, -0.5)",cs_pos_s_new,"(0.7, 0.5)",cs_pos_s_new,0,0,0,0,,,,,0,68,68,66,,333.9296304997988,l,0.4141680998727679,correct,,3,A,2024-04-08_13h12.05.946,gca_discrimination2,2022.2.4,143.96961612587828,
positions.xlsx,stimuli.xlsx,test.xlsx,stimuli/Test1.png,stimuli/Test2.png,stimuli/Social1.png,stimuli/Social2.png,stimuli/Nonsocial1.png,stimuli/Nonsocial2.png,stimuli/Social3.png,stimuli/Social4.png,stimuli/Nonsocial3.png,stimuli/Nonsocial4.png,"(0.7, 0.5)",cs_pos_ns,"(-0.7, 0.5)",cs_pos_ns,0,0,0,0,,,,,0,69,69,91,,336.31843629991636,l,0.28161599999293685,correct,,3,A,2024-04-08_13h12.05.946,gca_discrimination2,2022.2.4,143.96961612587828,
positions.xlsx,stimuli.xlsx,test.xlsx,stimuli/Test1.png,stimuli/Test2.png,stimuli/Social1.png,stimuli/Social2.png,stimuli/Nonsocial1.png,stimuli/Nonsocial2.png,stimuli/Social3.png,stimuli/Social4.png,stimuli/Nonsocial3.png,stimuli/Nonsocial4.png,"(-0.7, -0.5)",cs_pos_ns,"(0.7, -0.5)",cs_neg_ns,0,0,0,0,,,,,0,70,70,46,,338.8391754999757,ä,0.6263951002620161,correct,,3,A,2024-04-08_13h12.05.946,gca_discrimination2,2022.2.4,143.96961612587828,
positions.xlsx,stimuli.xlsx,test.xlsx,stimuli/Test1.png,stimuli/Test2.png,stimuli/Social1.png,stimuli/Social2.png,stimuli/Nonsocial1.png,stimuli/Nonsocial2.png,stimuli/Social3.png,stimuli/Social4.png,stimuli/Nonsocial3.png,stimuli/Nonsocial4.png,"(0.7, -0.5)",cs_neg_ns_new,"(0.7, 0.5)",cs_neg_ns_new,0,0,0,0,,,,,0,71,71,88,,341.29738029977307,l,0.390408500097692,correct,,3,A,2024-04-08_13h12.05.946,gca_discrimination2,2022.2.4,143.96961612587828,
positions.xlsx,stimuli.xlsx,test.xlsx,stimuli/Test1.png,stimuli/Test2.png,stimuli/Social1.png,stimuli/Social2.png,stimuli/Nonsocial1.png,stimuli/Nonsocial2.png,stimuli/Social3.png,stimuli/Social4.png,stimuli/Nonsocial3.png,stimuli/Nonsocial4.png,"(0.7, -0.5)",cs_pos_s,"(-0.7, -0.5)",cs_neg_s,0,0,0,0,,,,,0,72,72,20,,344.5055979997851,ä,0.471038400195539,correct,,3,A,2024-04-08_13h12.05.946,gca_discrimination2,2022.2.4,143.96961612587828,
positions.xlsx,stimuli.xlsx,test.xlsx,stimuli/Test1.png,stimuli/Test2.png,stimuli/Social1.png,stimuli/Social2.png,stimuli/Nonsocial1.png,stimuli/Nonsocial2.png,stimuli/Social3.png,stimuli/Social4.png,stimuli/Nonsocial3.png,stimuli/Nonsocial4.png,"(-0.7, -0.5)",cs_pos_ns_new,"(0.7, 0.5)",cs_pos_ns_new,0,0,0,0,,,,,0,73,73,78,,347.42903140001,l,0.40451009990647435,correct,,3,A,2024-04-08_13h12.05.946,gca_discrimination2,2022.2.4,143.96961612587828,
positions.xlsx,stimuli.xlsx,test.xlsx,stimuli/Test1.png,stimuli/Test2.png,stimuli/Social1.png,stimuli/Social2.png,stimuli/Nonsocial1.png,stimuli/Nonsocial2.png,stimuli/Social3.png,stimuli/Social4.png,stimuli/Nonsocial3.png,stimuli/Nonsocial4.png,"(-0.7, -0.5)",cs_neg_ns,"(0.7, -0.5)",cs_neg_ns_new,0,0,0,0,,,,,0,74,74,45,,350.29007139988244,ä,0.45439609978348017,correct,,3,A,2024-04-08_13h12.05.946,gca_discrimination2,2022.2.4,143.96961612587828,
positions.xlsx,stimuli.xlsx,test.xlsx,stimuli/Test1.png,stimuli/Test2.png,stimuli/Social1.png,stimuli/Social2.png,stimuli/Nonsocial1.png,stimuli/Nonsocial2.png,stimuli/Social3.png,stimuli/Social4.png,stimuli/Nonsocial3.png,stimuli/Nonsocial4.png,"(0.7, -0.5)",cs_neg_s_new,"(0.7, 0.5)",cs_pos_s_new,0,0,0,0,,,,,0,75,75,19,,352.9913459001109,ä,0.42522040009498596,correct,,3,A,2024-04-08_13h12.05.946,gca_discrimination2,2022.2.4,143.96961612587828,
positions.xlsx,stimuli.xlsx,test.xlsx,stimuli/Test1.png,stimuli/Test2.png,stimuli/Social1.png,stimuli/Social2.png,stimuli/Nonsocial1.png,stimuli/Nonsocial2.png,stimuli/Social3.png,stimuli/Social4.png,stimuli/Nonsocial3.png,stimuli/Nonsocial4.png,"(-0.7, -0.5)",cs_pos_s_new,"(0.7, -0.5)",cs_neg_s_new,0,0,0,0,,,,,0,76,76,15,,355.4704633997753,l,0.46623789984732866,wrong,,3,A,2024-04-08_13h12.05.946,gca_discrimination2,2022.2.4,143.96961612587828,
positions.xlsx,stimuli.xlsx,test.xlsx,stimuli/Test1.png,stimuli/Test2.png,stimuli/Social1.png,stimuli/Social2.png,stimuli/Nonsocial1.png,stimuli/Nonsocial2.png,stimuli/Social3.png,stimuli/Social4.png,stimuli/Nonsocial3.png,stimuli/Nonsocial4.png,"(0.7, 0.5)",cs_pos_ns,"(0.7, -0.5)",cs_pos_ns,0,0,0,0,,,,,0,77,77,90,,358.7133375997655,l,0.41555600007995963,correct,,3,A,2024-04-08_13h12.05.946,gca_discrimination2,2022.2.4,143.96961612587828,
positions.xlsx,stimuli.xlsx,test.xlsx,stimuli/Test1.png,stimuli/Test2.png,stimuli/Social1.png,stimuli/Social2.png,stimuli/Nonsocial1.png,stimuli/Nonsocial2.png,stimuli/Social3.png,stimuli/Social4.png,stimuli/Nonsocial3.png,stimuli/Nonsocial4.png,"(-0.7, -0.5)",cs_neg_ns,"(0.7, 0.5)",cs_neg_ns,0,0,0,0,,,,,0,78,78,86,,361.37990269996226,l,0.3644607998430729,correct,,3,A,2024-04-08_13h12.05.946,gca_discrimination2,2022.2.4,143.96961612587828,
positions.xlsx,stimuli.xlsx,test.xlsx,stimuli/Test1.png,stimuli/Test2.png,stimuli/Social1.png,stimuli/Social2.png,stimuli/Nonsocial1.png,stimuli/Nonsocial2.png,stimuli/Social3.png,stimuli/Social4.png,stimuli/Nonsocial3.png,stimuli/Nonsocial4.png,"(-0.7, -0.5)",cs_neg_ns_new,"(-0.7, 0.5)",cs_pos_ns_new,0,0,0,0,,,,,0,79,79,35,,364.44921710016206,l,0.319108999799937,wrong,,3,A,2024-04-08_13h12.05.946,gca_discrimination2,2022.2.4,143.96961612587828,
positions.xlsx,stimuli.xlsx,test.xlsx,stimuli/Test1.png,stimuli/Test2.png,stimuli/Social1.png,stimuli/Social2.png,stimuli/Nonsocial1.png,stimuli/Nonsocial2.png,stimuli/Social3.png,stimuli/Social4.png,stimuli/Nonsocial3.png,stimuli/Nonsocial4.png,"(-0.7, -0.5)",cs_neg_s,"(0.7, -0.5)",cs_neg_s,0,0,0,0,,,,,0,80,80,62,,366.8102119998075,ä,0.5101711000315845,wrong,,3,A,2024-04-08_13h12.05.946,gca_discrimination2,2022.2.4,143.96961612587828,
positions.xlsx,stimuli.xlsx,test.xlsx,stimuli/Test1.png,stimuli/Test2.png,stimuli/Social1.png,stimuli/Social2.png,stimuli/Nonsocial1.png,stimuli/Nonsocial2.png,stimuli/Social3.png,stimuli/Social4.png,stimuli/Nonsocial3.png,stimuli/Nonsocial4.png,"(-0.7, 0.5)",cs_pos_s_new,"(-0.7, -0.5)",cs_pos_s_new,0,0,0,0,,,,,0,81,81,52,,369.26846379972994,l,0.45218259980902076,correct,,3,A,2024-04-08_13h12.05.946,gca_discrimination2,2022.2.4,143.96961612587828,
positions.xlsx,stimuli.xlsx,test.xlsx,stimuli/Test1.png,stimuli/Test2.png,stimuli/Social1.png,stimuli/Social2.png,stimuli/Nonsocial1.png,stimuli/Nonsocial2.png,stimuli/Social3.png,stimuli/Social4.png,stimuli/Nonsocial3.png,stimuli/Nonsocial4.png,"(0.7, 0.5)",cs_neg_s_new,"(-0.7, -0.5)",cs_neg_s_new,0,0,0,0,,,,,0,82,82,68,,371.61556199984625,ä,0.6489964998327196,wrong,,3,A,2024-04-08_13h12.05.946,gca_discrimination2,2022.2.4,143.96961612587828,
positions.xlsx,stimuli.xlsx,test.xlsx,stimuli/Test1.png,stimuli/Test2.png,stimuli/Social1.png,stimuli/Social2.png,stimuli/Nonsocial1.png,stimuli/Nonsocial2.png,stimuli/Social3.png,stimuli/Social4.png,stimuli/Nonsocial3.png,stimuli/Nonsocial4.png,"(-0.7, 0.5)",cs_pos_ns,"(0.7, -0.5)",cs_neg_ns_new,0,0,0,0,,,,,0,83,83,38,,374.1987898000516,ä,0.5781264002434909,correct,,3,A,2024-04-08_13h12.05.946,gca_discrimination2,2022.2.4,143.96961612587828,
positions.xlsx,stimuli.xlsx,test.xlsx,stimuli/Test1.png,stimuli/Test2.png,stimuli/Social1.png,stimuli/Social2.png,stimuli/Nonsocial1.png,stimuli/Nonsocial2.png,stimuli/Social3.png,stimuli/Social4.png,stimuli/Nonsocial3.png,stimuli/Nonsocial4.png,"(0.7, -0.5)",cs_neg_ns_new,"(-0.7, 0.5)",cs_pos_ns,0,0,0,0,,,,,0,84,84,33,,376.6223516999744,ä,0.4986872002482414,correct,,3,A,2024-04-08_13h12.05.946,gca_discrimination2,2022.2.4,143.96961612587828,
positions.xlsx,stimuli.xlsx,test.xlsx,stimuli/Test1.png,stimuli/Test2.png,stimuli/Social1.png,stimuli/Social2.png,stimuli/Nonsocial1.png,stimuli/Nonsocial2.png,stimuli/Social3.png,stimuli/Social4.png,stimuli/Nonsocial3.png,stimuli/Nonsocial4.png,"(-0.7, 0.5)",cs_pos_ns_new,"(-0.7, -0.5)",cs_pos_ns_new,0,0,0,0,,,,,0,85,85,84,,379.233345199842,l,0.49585420032963157,correct,,3,A,2024-04-08_13h12.05.946,gca_discrimination2,2022.2.4,143.96961612587828,
positions.xlsx,stimuli.xlsx,test.xlsx,stimuli/Test1.png,stimuli/Test2.png,stimuli/Social1.png,stimuli/Social2.png,stimuli/Nonsocial1.png,stimuli/Nonsocial2.png,stimuli/Social3.png,stimuli/Social4.png,stimuli/Nonsocial3.png,stimuli/Nonsocial4.png,"(0.7, -0.5)",cs_neg_ns_new,"(-0.7, 0.5)",cs_neg_ns_new,0,0,0,0,,,,,0,86,86,93,,381.71240360010415,ä,0.5121607999317348,wrong,,3,A,2024-04-08_13h12.05.946,gca_discrimination2,2022.2.4,143.96961612587828,
positions.xlsx,stimuli.xlsx,test.xlsx,stimuli/Test1.png,stimuli/Test2.png,stimuli/Social1.png,stimuli/Social2.png,stimuli/Nonsocial1.png,stimuli/Nonsocial2.png,stimuli/Social3.png,stimuli/Social4.png,stimuli/Nonsocial3.png,stimuli/Nonsocial4.png,"(0.7, 0.5)",cs_neg_s_new,"(0.7, -0.5)",cs_neg_s_new,0,0,0,0,,,,,0,87,87,63,,384.3511894000694,l,0.48971830029040575,correct,,3,A,2024-04-08_13h12.05.946,gca_discrimination2,2022.2.4,143.96961612587828,
positions.xlsx,stimuli.xlsx,test.xlsx,stimuli/Test1.png,stimuli/Test2.png,stimuli/Social1.png,stimuli/Social2.png,stimuli/Nonsocial1.png,stimuli/Nonsocial2.png,stimuli/Social3.png,stimuli/Social4.png,stimuli/Nonsocial3.png,stimuli/Nonsocial4.png,"(0.7, 0.5)",cs_neg_ns_new,"(0.7, -0.5)",cs_neg_ns_new,0,0,0,0,,,,,0,88,88,92,,386.7191444998607,l,0.4730289997532964,correct,,3,A,2024-04-08_13h12.05.946,gca_discrimination2,2022.2.4,143.96961612587828,
positions.xlsx,stimuli.xlsx,test.xlsx,stimuli/Test1.png,stimuli/Test2.png,stimuli/Social1.png,stimuli/Social2.png,stimuli/Nonsocial1.png,stimuli/Nonsocial2.png,stimuli/Social3.png,stimuli/Social4.png,stimuli/Nonsocial3.png,stimuli/Nonsocial4.png,"(-0.7, 0.5)",cs_neg_ns_new,"(0.7, 0.5)",cs_neg_ns_new,0,0,0,0,,,,,0,89,89,89,,389.7329053999856,l,0.38734039990231395,correct,,3,A,2024-04-08_13h12.05.946,gca_discrimination2,2022.2.4,143.96961612587828,
positions.xlsx,stimuli.xlsx,test.xlsx,stimuli/Test1.png,stimuli/Test2.png,stimuli/Social1.png,stimuli/Social2.png,stimuli/Nonsocial1.png,stimuli/Nonsocial2.png,stimuli/Social3.png,stimuli/Social4.png,stimuli/Nonsocial3.png,stimuli/Nonsocial4.png,"(0.7, 0.5)",cs_neg_ns,"(-0.7, 0.5)",cs_pos_ns_new,0,0,0,0,,,,,0,90,90,39,,392.5869689001702,ä,0.6133471997454762,correct,,3,A,2024-04-08_13h12.05.946,gca_discrimination2,2022.2.4,143.96961612587828,
positions.xlsx,stimuli.xlsx,test.xlsx,stimuli/Test1.png,stimuli/Test2.png,stimuli/Social1.png,stimuli/Social2.png,stimuli/Nonsocial1.png,stimuli/Nonsocial2.png,stimuli/Social3.png,stimuli/Social4.png,stimuli/Nonsocial3.png,stimuli/Nonsocial4.png,"(-0.7, -0.5)",cs_neg_s_new,"(0.7, 0.5)",cs_neg_s_new,0,0,0,0,,,,,0,91,91,59,,395.57984340004623,l,0.524720000103116,correct,,3,A,2024-04-08_13h12.05.946,gca_discrimination2,2022.2.4,143.96961612587828,
positions.xlsx,stimuli.xlsx,test.xlsx,stimuli/Test1.png,stimuli/Test2.png,stimuli/Social1.png,stimuli/Social2.png,stimuli/Nonsocial1.png,stimuli/Nonsocial2.png,stimuli/Social3.png,stimuli/Social4.png,stimuli/Nonsocial3.png,stimuli/Nonsocial4.png,"(0.7, 0.5)",cs_neg_s_new,"(-0.7, 0.5)",cs_neg_s_new,0,0,0,0,,,,,0,92,92,64,,398.76727359974757,l,0.48071049991995096,correct,,3,A,2024-04-08_13h12.05.946,gca_discrimination2,2022.2.4,143.96961612587828,
positions.xlsx,stimuli.xlsx,test.xlsx,stimuli/Test1.png,stimuli/Test2.png,stimuli/Social1.png,stimuli/Social2.png,stimuli/Nonsocial1.png,stimuli/Nonsocial2.png,stimuli/Social3.png,stimuli/Social4.png,stimuli/Nonsocial3.png,stimuli/Nonsocial4.png,"(-0.7, -0.5)",cs_neg_s,"(-0.7, 0.5)",cs_neg_s,0,0,0,0,,,,,0,93,93,69,,401.69770109979436,l,0.27096630027517676,correct,,3,A,2024-04-08_13h12.05.946,gca_discrimination2,2022.2.4,143.96961612587828,
positions.xlsx,stimuli.xlsx,test.xlsx,stimuli/Test1.png,stimuli/Test2.png,stimuli/Social1.png,stimuli/Social2.png,stimuli/Nonsocial1.png,stimuli/Nonsocial2.png,stimuli/Social3.png,stimuli/Social4.png,stimuli/Nonsocial3.png,stimuli/Nonsocial4.png,"(-0.7, 0.5)",cs_neg_ns,"(-0.7, -0.5)",cs_neg_ns_new,0,0,0,0,,,,,0,94,94,47,,404.2323243999854,ä,0.45558239985257387,correct,,3,A,2024-04-08_13h12.05.946,gca_discrimination2,2022.2.4,143.96961612587828,
positions.xlsx,stimuli.xlsx,test.xlsx,stimuli/Test1.png,stimuli/Test2.png,stimuli/Social1.png,stimuli/Social2.png,stimuli/Nonsocial1.png,stimuli/Nonsocial2.png,stimuli/Social3.png,stimuli/Social4.png,stimuli/Nonsocial3.png,stimuli/Nonsocial4.png,"(0.7, 0.5)",cs_pos_s,"(-0.7, 0.5)",cs_pos_s_new,0,0,0,0,,,,,0,95,95,0,,407.03079300001264,ä,0.4012339999899268,correct,,3,A,2024-04-08_13h12.05.946,gca_discrimination2,2022.2.4,143.96961612587828,
