posFile,stimFile,testFile,test1,test2,cs_neg_s,cs_pos_s,cs_neg_ns,cs_pos_ns,cs_neg_s_new,cs_pos_s_new,cs_neg_ns_new,cs_pos_ns_new,position1,stim1,position2,stim2,blocks.thisRepN,blocks.thisTrialN,blocks.thisN,blocks.thisIndex,learning_trials.thisRepN,learning_trials.thisTrialN,learning_trials.thisN,learning_trials.thisIndex,trials.thisRepN,trials.thisTrialN,trials.thisN,trials.thisIndex,textStart.started,key.started,key.keys,key.rt,correctness,textStartTask.started,participant,group,date,expName,psychopyVersion,frameRate,
positions.xlsx,stimuli.xlsx,test.xlsx,stimuli/Test1.png,stimuli/Test2.png,stimuli/Social2.png,stimuli/Social1.png,stimuli/Nonsocial2.png,stimuli/Nonsocial1.png,stimuli/Social4.png,stimuli/Social3.png,stimuli/Nonsocial4.png,stimuli/Nonsocial3.png,"(0.7, -0.5)",test2,"(-0.7, 0.5)",test2,0,0,0,0,0,0,0,4,,,,,13.328604199999972,40.39002189999974,l,1.022814300000391,wrong,,33,B,2024-05-15_09h59.58.985,gca_discrimination2,2022.2.4,143.9743840777962,
positions.xlsx,stimuli.xlsx,test.xlsx,stimuli/Test1.png,stimuli/Test2.png,stimuli/Social2.png,stimuli/Social1.png,stimuli/Nonsocial2.png,stimuli/Nonsocial1.png,stimuli/Social4.png,stimuli/Social3.png,stimuli/Nonsocial4.png,stimuli/Nonsocial3.png,"(-0.7, 0.5)",test1,"(0.7, 0.5)",test2,0,0,0,0,0,1,1,8,,,,,,45.917568400000164,l,0.43270380000012665,correct,,33,B,2024-05-15_09h59.58.985,gca_discrimination2,2022.2.4,143.9743840777962,
positions.xlsx,stimuli.xlsx,test.xlsx,stimuli/Test1.png,stimuli/Test2.png,stimuli/Social2.png,stimuli/Social1.png,stimuli/Nonsocial2.png,stimuli/Nonsocial1.png,stimuli/Social4.png,stimuli/Social3.png,stimuli/Nonsocial4.png,stimuli/Nonsocial3.png,"(-0.7, 0.5)",test1,"(-0.7, -0.5)",test1,0,0,0,0,0,2,2,1,,,,,,50.52845669999988,ä,0.556386800000837,correct,,33,B,2024-05-15_09h59.58.985,gca_discrimination2,2022.2.4,143.9743840777962,
positions.xlsx,stimuli.xlsx,test.xlsx,stimuli/Test1.png,stimuli/Test2.png,stimuli/Social2.png,stimuli/Social1.png,stimuli/Nonsocial2.png,stimuli/Nonsocial1.png,stimuli/Social4.png,stimuli/Social3.png,stimuli/Nonsocial4.png,stimuli/Nonsocial3.png,"(0.7, -0.5)",test2,"(0.7, 0.5)",test1,0,0,0,0,0,3,3,2,,,,,,55.646284899999955,l,0.742732700000488,correct,,33,B,2024-05-15_09h59.58.985,gca_discrimination2,2022.2.4,143.9743840777962,
positions.xlsx,stimuli.xlsx,test.xlsx,stimuli/Test1.png,stimuli/Test2.png,stimuli/Social2.png,stimuli/Social1.png,stimuli/Nonsocial2.png,stimuli/Nonsocial1.png,stimuli/Social4.png,stimuli/Social3.png,stimuli/Nonsocial4.png,stimuli/Nonsocial3.png,"(-0.7, 0.5)",test1,"(0.7, -0.5)",test1,0,0,0,0,0,4,4,5,,,,,,60.81972709999991,ä,0.20244020000063756,correct,,33,B,2024-05-15_09h59.58.985,gca_discrimination2,2022.2.4,143.9743840777962,
positions.xlsx,stimuli.xlsx,test.xlsx,stimuli/Test1.png,stimuli/Test2.png,stimuli/Social2.png,stimuli/Social1.png,stimuli/Nonsocial2.png,stimuli/Nonsocial1.png,stimuli/Social4.png,stimuli/Social3.png,stimuli/Nonsocial4.png,stimuli/Nonsocial3.png,"(0.7, -0.5)",test2,"(-0.7, -0.5)",test2,0,0,0,0,0,5,5,6,,,,,,64.92370870000013,ä,0.297568300000421,correct,,33,B,2024-05-15_09h59.58.985,gca_discrimination2,2022.2.4,143.9743840777962,
positions.xlsx,stimuli.xlsx,test.xlsx,stimuli/Test1.png,stimuli/Test2.png,stimuli/Social2.png,stimuli/Social1.png,stimuli/Nonsocial2.png,stimuli/Nonsocial1.png,stimuli/Social4.png,stimuli/Social3.png,stimuli/Nonsocial4.png,stimuli/Nonsocial3.png,"(-0.7, 0.5)",test1,"(0.7, 0.5)",test1,0,0,0,0,0,6,6,0,,,,,,69.3054573999998,ä,0.41229350000048726,correct,,33,B,2024-05-15_09h59.58.985,gca_discrimination2,2022.2.4,143.9743840777962,
positions.xlsx,stimuli.xlsx,test.xlsx,stimuli/Test1.png,stimuli/Test2.png,stimuli/Social2.png,stimuli/Social1.png,stimuli/Nonsocial2.png,stimuli/Nonsocial1.png,stimuli/Social4.png,stimuli/Social3.png,stimuli/Nonsocial4.png,stimuli/Nonsocial3.png,"(0.7, -0.5)",test1,"(-0.7, 0.5)",test2,0,0,0,0,0,7,7,9,,,,,,73.8469427,l,0.30231520000052114,correct,,33,B,2024-05-15_09h59.58.985,gca_discrimination2,2022.2.4,143.9743840777962,
positions.xlsx,stimuli.xlsx,test.xlsx,stimuli/Test1.png,stimuli/Test2.png,stimuli/Social2.png,stimuli/Social1.png,stimuli/Nonsocial2.png,stimuli/Nonsocial1.png,stimuli/Social4.png,stimuli/Social3.png,stimuli/Nonsocial4.png,stimuli/Nonsocial3.png,"(0.7, 0.5)",test2,"(0.7, -0.5)",test1,0,0,0,0,0,8,8,3,,,,,,77.97178079999958,l,0.4895447000008062,correct,,33,B,2024-05-15_09h59.58.985,gca_discrimination2,2022.2.4,143.9743840777962,
positions.xlsx,stimuli.xlsx,test.xlsx,stimuli/Test1.png,stimuli/Test2.png,stimuli/Social2.png,stimuli/Social1.png,stimuli/Nonsocial2.png,stimuli/Nonsocial1.png,stimuli/Social4.png,stimuli/Social3.png,stimuli/Nonsocial4.png,stimuli/Nonsocial3.png,"(-0.7, 0.5)",test1,"(0.7, -0.5)",test1,0,0,0,0,0,9,9,7,,,,,,83.20766939999976,l,0.5169111000004705,wrong,,33,B,2024-05-15_09h59.58.985,gca_discrimination2,2022.2.4,143.9743840777962,
positions.xlsx,stimuli.xlsx,test.xlsx,stimuli/Test1.png,stimuli/Test2.png,stimuli/Social2.png,stimuli/Social1.png,stimuli/Nonsocial2.png,stimuli/Nonsocial1.png,stimuli/Social4.png,stimuli/Social3.png,stimuli/Nonsocial4.png,stimuli/Nonsocial3.png,"(-0.7, 0.5)",cs_neg_s_new,"(-0.7, -0.5)",cs_neg_s_new,0,0,0,0,,,,,0,0,0,53,,107.38027309999961,ä,0.6410171000006812,correct,86.40892499999973,33,B,2024-05-15_09h59.58.985,gca_discrimination2,2022.2.4,143.9743840777962,
positions.xlsx,stimuli.xlsx,test.xlsx,stimuli/Test1.png,stimuli/Test2.png,stimuli/Social2.png,stimuli/Social1.png,stimuli/Nonsocial2.png,stimuli/Nonsocial1.png,stimuli/Social4.png,stimuli/Social3.png,stimuli/Nonsocial4.png,stimuli/Nonsocial3.png,"(-0.7, 0.5)",cs_neg_ns_new,"(0.7, 0.5)",cs_neg_ns,0,0,0,0,,,,,0,1,1,25,,110.2898583999995,l,0.3870314000005237,correct,,33,B,2024-05-15_09h59.58.985,gca_discrimination2,2022.2.4,143.9743840777962,
positions.xlsx,stimuli.xlsx,test.xlsx,stimuli/Test1.png,stimuli/Test2.png,stimuli/Social2.png,stimuli/Social1.png,stimuli/Nonsocial2.png,stimuli/Nonsocial1.png,stimuli/Social4.png,stimuli/Social3.png,stimuli/Nonsocial4.png,stimuli/Nonsocial3.png,"(-0.7, 0.5)",cs_neg_ns,"(0.7, 0.5)",cs_pos_ns,0,0,0,0,,,,,0,2,2,43,,112.79674309999973,ä,0.46426400000018475,wrong,,33,B,2024-05-15_09h59.58.985,gca_discrimination2,2022.2.4,143.9743840777962,
positions.xlsx,stimuli.xlsx,test.xlsx,stimuli/Test1.png,stimuli/Test2.png,stimuli/Social2.png,stimuli/Social1.png,stimuli/Nonsocial2.png,stimuli/Nonsocial1.png,stimuli/Social4.png,stimuli/Social3.png,stimuli/Nonsocial4.png,stimuli/Nonsocial3.png,"(-0.7, 0.5)",cs_neg_ns,"(0.7, 0.5)",cs_neg_ns_new,0,0,0,0,,,,,0,3,3,30,,115.94241779999993,l,0.6543588000013187,correct,,33,B,2024-05-15_09h59.58.985,gca_discrimination2,2022.2.4,143.9743840777962,
positions.xlsx,stimuli.xlsx,test.xlsx,stimuli/Test1.png,stimuli/Test2.png,stimuli/Social2.png,stimuli/Social1.png,stimuli/Nonsocial2.png,stimuli/Nonsocial1.png,stimuli/Social4.png,stimuli/Social3.png,stimuli/Nonsocial4.png,stimuli/Nonsocial3.png,"(-0.7, 0.5)",cs_neg_ns,"(-0.7, -0.5)",cs_neg_ns_new,0,0,0,0,,,,,0,4,4,28,,118.47707100000025,ä,1.0554370999998355,wrong,,33,B,2024-05-15_09h59.58.985,gca_discrimination2,2022.2.4,143.9743840777962,
positions.xlsx,stimuli.xlsx,test.xlsx,stimuli/Test1.png,stimuli/Test2.png,stimuli/Social2.png,stimuli/Social1.png,stimuli/Nonsocial2.png,stimuli/Nonsocial1.png,stimuli/Social4.png,stimuli/Social3.png,stimuli/Nonsocial4.png,stimuli/Nonsocial3.png,"(-0.7, 0.5)",cs_neg_s_new,"(0.7, -0.5)",cs_pos_s_new,0,0,0,0,,,,,0,5,5,20,,121.84494769999947,l,0.8716050000002724,correct,,33,B,2024-05-15_09h59.58.985,gca_discrimination2,2022.2.4,143.9743840777962,
positions.xlsx,stimuli.xlsx,test.xlsx,stimuli/Test1.png,stimuli/Test2.png,stimuli/Social2.png,stimuli/Social1.png,stimuli/Nonsocial2.png,stimuli/Nonsocial1.png,stimuli/Social4.png,stimuli/Social3.png,stimuli/Nonsocial4.png,stimuli/Nonsocial3.png,"(0.7, 0.5)",cs_neg_ns,"(-0.7, -0.5)",cs_neg_ns,0,0,0,0,,,,,0,6,6,89,,125.07399499999974,ä,0.5963817000001654,correct,,33,B,2024-05-15_09h59.58.985,gca_discrimination2,2022.2.4,143.9743840777962,
positions.xlsx,stimuli.xlsx,test.xlsx,stimuli/Test1.png,stimuli/Test2.png,stimuli/Social2.png,stimuli/Social1.png,stimuli/Nonsocial2.png,stimuli/Nonsocial1.png,stimuli/Social4.png,stimuli/Social3.png,stimuli/Nonsocial4.png,stimuli/Nonsocial3.png,"(0.7, 0.5)",cs_neg_s,"(0.7, -0.5)",cs_pos_s_new,0,0,0,0,,,,,0,7,7,1,,128.21967419999964,ä,0.8096480000003794,wrong,,33,B,2024-05-15_09h59.58.985,gca_discrimination2,2022.2.4,143.9743840777962,
positions.xlsx,stimuli.xlsx,test.xlsx,stimuli/Test1.png,stimuli/Test2.png,stimuli/Social2.png,stimuli/Social1.png,stimuli/Nonsocial2.png,stimuli/Nonsocial1.png,stimuli/Social4.png,stimuli/Social3.png,stimuli/Nonsocial4.png,stimuli/Nonsocial3.png,"(-0.7, -0.5)",cs_neg_s_new,"(0.7, 0.5)",cs_pos_s_new,0,0,0,0,,,,,0,8,8,21,,131.2403706999994,l,0.7326049000012063,correct,,33,B,2024-05-15_09h59.58.985,gca_discrimination2,2022.2.4,143.9743840777962,
positions.xlsx,stimuli.xlsx,test.xlsx,stimuli/Test1.png,stimuli/Test2.png,stimuli/Social2.png,stimuli/Social1.png,stimuli/Nonsocial2.png,stimuli/Nonsocial1.png,stimuli/Social4.png,stimuli/Social3.png,stimuli/Nonsocial4.png,stimuli/Nonsocial3.png,"(-0.7, 0.5)",cs_pos_s,"(0.7, 0.5)",cs_pos_s,0,0,0,0,,,,,0,9,9,63,,134.73332260000006,ä,0.5431360000011409,correct,,33,B,2024-05-15_09h59.58.985,gca_discrimination2,2022.2.4,143.9743840777962,
positions.xlsx,stimuli.xlsx,test.xlsx,stimuli/Test1.png,stimuli/Test2.png,stimuli/Social2.png,stimuli/Social1.png,stimuli/Nonsocial2.png,stimuli/Nonsocial1.png,stimuli/Social4.png,stimuli/Social3.png,stimuli/Nonsocial4.png,stimuli/Nonsocial3.png,"(-0.7, 0.5)",cs_pos_s,"(-0.7, -0.5)",cs_neg_s_new,0,0,0,0,,,,,0,10,10,17,,137.64984989999994,l,0.49969640000017534,correct,,33,B,2024-05-15_09h59.58.985,gca_discrimination2,2022.2.4,143.9743840777962,
positions.xlsx,stimuli.xlsx,test.xlsx,stimuli/Test1.png,stimuli/Test2.png,stimuli/Social2.png,stimuli/Social1.png,stimuli/Nonsocial2.png,stimuli/Nonsocial1.png,stimuli/Social4.png,stimuli/Social3.png,stimuli/Nonsocial4.png,stimuli/Nonsocial3.png,"(-0.7, -0.5)",cs_pos_ns_new,"(0.7, -0.5)",cs_neg_ns_new,0,0,0,0,,,,,0,11,11,40,,140.12196989999939,ä,0.8665326000009372,wrong,,33,B,2024-05-15_09h59.58.985,gca_discrimination2,2022.2.4,143.9743840777962,
positions.xlsx,stimuli.xlsx,test.xlsx,stimuli/Test1.png,stimuli/Test2.png,stimuli/Social2.png,stimuli/Social1.png,stimuli/Nonsocial2.png,stimuli/Nonsocial1.png,stimuli/Social4.png,stimuli/Social3.png,stimuli/Nonsocial4.png,stimuli/Nonsocial3.png,"(-0.7, -0.5)",cs_neg_ns,"(-0.7, 0.5)",cs_neg_ns,0,0,0,0,,,,,0,12,12,94,,143.2607078000001,ä,0.5843025000003763,correct,,33,B,2024-05-15_09h59.58.985,gca_discrimination2,2022.2.4,143.9743840777962,
positions.xlsx,stimuli.xlsx,test.xlsx,stimuli/Test1.png,stimuli/Test2.png,stimuli/Social2.png,stimuli/Social1.png,stimuli/Nonsocial2.png,stimuli/Nonsocial1.png,stimuli/Social4.png,stimuli/Social3.png,stimuli/Nonsocial4.png,stimuli/Nonsocial3.png,"(0.7, -0.5)",cs_pos_s_new,"(-0.7, 0.5)",cs_neg_s_new,0,0,0,0,,,,,0,13,13,23,,146.17035020000003,l,0.8275327000001198,correct,,33,B,2024-05-15_09h59.58.985,gca_discrimination2,2022.2.4,143.9743840777962,
positions.xlsx,stimuli.xlsx,test.xlsx,stimuli/Test1.png,stimuli/Test2.png,stimuli/Social2.png,stimuli/Social1.png,stimuli/Nonsocial2.png,stimuli/Nonsocial1.png,stimuli/Social4.png,stimuli/Social3.png,stimuli/Nonsocial4.png,stimuli/Nonsocial3.png,"(0.7, -0.5)",cs_neg_s_new,"(-0.7, 0.5)",cs_pos_s_new,0,0,0,0,,,,,0,14,14,14,,149.26738019999993,l,0.5621082000006936,correct,,33,B,2024-05-15_09h59.58.985,gca_discrimination2,2022.2.4,143.9743840777962,
positions.xlsx,stimuli.xlsx,test.xlsx,stimuli/Test1.png,stimuli/Test2.png,stimuli/Social2.png,stimuli/Social1.png,stimuli/Nonsocial2.png,stimuli/Nonsocial1.png,stimuli/Social4.png,stimuli/Social3.png,stimuli/Nonsocial4.png,stimuli/Nonsocial3.png,"(-0.7, -0.5)",cs_pos_ns,"(-0.7, 0.5)",cs_pos_ns,0,0,0,0,,,,,0,15,15,88,,151.7465070999997,ä,0.5624003000002631,correct,,33,B,2024-05-15_09h59.58.985,gca_discrimination2,2022.2.4,143.9743840777962,
positions.xlsx,stimuli.xlsx,test.xlsx,stimuli/Test1.png,stimuli/Test2.png,stimuli/Social2.png,stimuli/Social1.png,stimuli/Nonsocial2.png,stimuli/Nonsocial1.png,stimuli/Social4.png,stimuli/Social3.png,stimuli/Nonsocial4.png,stimuli/Nonsocial3.png,"(0.7, 0.5)",cs_pos_s,"(0.7, -0.5)",cs_pos_s,0,0,0,0,,,,,0,16,16,60,,154.19780009999977,ä,0.5273925999999847,correct,,33,B,2024-05-15_09h59.58.985,gca_discrimination2,2022.2.4,143.9743840777962,
positions.xlsx,stimuli.xlsx,test.xlsx,stimuli/Test1.png,stimuli/Test2.png,stimuli/Social2.png,stimuli/Social1.png,stimuli/Nonsocial2.png,stimuli/Nonsocial1.png,stimuli/Social4.png,stimuli/Social3.png,stimuli/Nonsocial4.png,stimuli/Nonsocial3.png,"(-0.7, -0.5)",cs_neg_ns_new,"(0.7, 0.5)",cs_neg_ns_new,0,0,0,0,,,,,0,17,17,95,,156.7879551999995,ä,0.5292698000002929,correct,,33,B,2024-05-15_09h59.58.985,gca_discrimination2,2022.2.4,143.9743840777962,
positions.xlsx,stimuli.xlsx,test.xlsx,stimuli/Test1.png,stimuli/Test2.png,stimuli/Social2.png,stimuli/Social1.png,stimuli/Nonsocial2.png,stimuli/Nonsocial1.png,stimuli/Social4.png,stimuli/Social3.png,stimuli/Nonsocial4.png,stimuli/Nonsocial3.png,"(-0.7, 0.5)",cs_pos_s_new,"(0.7, -0.5)",cs_neg_s,0,0,0,0,,,,,0,18,18,10,,159.9613905999995,l,1.1478845999999976,correct,,33,B,2024-05-15_09h59.58.985,gca_discrimination2,2022.2.4,143.9743840777962,
positions.xlsx,stimuli.xlsx,test.xlsx,stimuli/Test1.png,stimuli/Test2.png,stimuli/Social2.png,stimuli/Social1.png,stimuli/Nonsocial2.png,stimuli/Nonsocial1.png,stimuli/Social4.png,stimuli/Social3.png,stimuli/Nonsocial4.png,stimuli/Nonsocial3.png,"(-0.7, -0.5)",cs_neg_ns_new,"(-0.7, 0.5)",cs_neg_ns,0,0,0,0,,,,,0,19,19,33,,162.9751959999994,ä,0.685425400000895,wrong,,33,B,2024-05-15_09h59.58.985,gca_discrimination2,2022.2.4,143.9743840777962,
positions.xlsx,stimuli.xlsx,test.xlsx,stimuli/Test1.png,stimuli/Test2.png,stimuli/Social2.png,stimuli/Social1.png,stimuli/Nonsocial2.png,stimuli/Nonsocial1.png,stimuli/Social4.png,stimuli/Social3.png,stimuli/Nonsocial4.png,stimuli/Nonsocial3.png,"(-0.7, 0.5)",cs_neg_ns_new,"(0.7, 0.5)",cs_pos_ns_new,0,0,0,0,,,,,0,20,20,37,,165.81535939999958,l,0.7494832000002134,correct,,33,B,2024-05-15_09h59.58.985,gca_discrimination2,2022.2.4,143.9743840777962,
positions.xlsx,stimuli.xlsx,test.xlsx,stimuli/Test1.png,stimuli/Test2.png,stimuli/Social2.png,stimuli/Social1.png,stimuli/Nonsocial2.png,stimuli/Nonsocial1.png,stimuli/Social4.png,stimuli/Social3.png,stimuli/Nonsocial4.png,stimuli/Nonsocial3.png,"(0.7, 0.5)",cs_pos_s_new,"(0.7, -0.5)",cs_pos_s,0,0,0,0,,,,,0,21,21,9,,168.4402731,ä,0.7568020000007891,wrong,,33,B,2024-05-15_09h59.58.985,gca_discrimination2,2022.2.4,143.9743840777962,
positions.xlsx,stimuli.xlsx,test.xlsx,stimuli/Test1.png,stimuli/Test2.png,stimuli/Social2.png,stimuli/Social1.png,stimuli/Nonsocial2.png,stimuli/Nonsocial1.png,stimuli/Social4.png,stimuli/Social3.png,stimuli/Nonsocial4.png,stimuli/Nonsocial3.png,"(0.7, 0.5)",cs_pos_s,"(0.7, -0.5)",cs_neg_s,0,0,0,0,,,,,0,22,22,11,,171.9817763000001,l,0.6961233000001812,correct,,33,B,2024-05-15_09h59.58.985,gca_discrimination2,2022.2.4,143.9743840777962,
positions.xlsx,stimuli.xlsx,test.xlsx,stimuli/Test1.png,stimuli/Test2.png,stimuli/Social2.png,stimuli/Social1.png,stimuli/Nonsocial2.png,stimuli/Nonsocial1.png,stimuli/Social4.png,stimuli/Social3.png,stimuli/Nonsocial4.png,stimuli/Nonsocial3.png,"(0.7, 0.5)",cs_pos_s,"(-0.7, -0.5)",cs_pos_s,0,0,0,0,,,,,0,23,23,68,,174.96085080000012,ä,0.836627500000759,correct,,33,B,2024-05-15_09h59.58.985,gca_discrimination2,2022.2.4,143.9743840777962,
positions.xlsx,stimuli.xlsx,test.xlsx,stimuli/Test1.png,stimuli/Test2.png,stimuli/Social2.png,stimuli/Social1.png,stimuli/Nonsocial2.png,stimuli/Nonsocial1.png,stimuli/Social4.png,stimuli/Social3.png,stimuli/Nonsocial4.png,stimuli/Nonsocial3.png,"(0.7, 0.5)",cs_neg_s,"(-0.7, 0.5)",cs_pos_s_new,0,0,0,0,,,,,0,24,24,15,,178.37038380000013,l,1.0424128000004202,correct,,33,B,2024-05-15_09h59.58.985,gca_discrimination2,2022.2.4,143.9743840777962,
positions.xlsx,stimuli.xlsx,test.xlsx,stimuli/Test1.png,stimuli/Test2.png,stimuli/Social2.png,stimuli/Social1.png,stimuli/Nonsocial2.png,stimuli/Nonsocial1.png,stimuli/Social4.png,stimuli/Social3.png,stimuli/Nonsocial4.png,stimuli/Nonsocial3.png,"(0.7, 0.5)",cs_pos_s_new,"(0.7, -0.5)",cs_pos_s_new,0,0,0,0,,,,,0,25,25,57,,181.2661780999997,l,1.0829742000005353,wrong,,33,B,2024-05-15_09h59.58.985,gca_discrimination2,2022.2.4,143.9743840777962,
positions.xlsx,stimuli.xlsx,test.xlsx,stimuli/Test1.png,stimuli/Test2.png,stimuli/Social2.png,stimuli/Social1.png,stimuli/Nonsocial2.png,stimuli/Nonsocial1.png,stimuli/Social4.png,stimuli/Social3.png,stimuli/Nonsocial4.png,stimuli/Nonsocial3.png,"(-0.7, 0.5)",cs_pos_ns_new,"(-0.7, -0.5)",cs_pos_ns_new,0,0,0,0,,,,,0,26,26,75,,184.74513449999995,ä,0.716252600000189,correct,,33,B,2024-05-15_09h59.58.985,gca_discrimination2,2022.2.4,143.9743840777962,
positions.xlsx,stimuli.xlsx,test.xlsx,stimuli/Test1.png,stimuli/Test2.png,stimuli/Social2.png,stimuli/Social1.png,stimuli/Nonsocial2.png,stimuli/Nonsocial1.png,stimuli/Social4.png,stimuli/Social3.png,stimuli/Nonsocial4.png,stimuli/Nonsocial3.png,"(-0.7, -0.5)",cs_neg_ns_new,"(-0.7, 0.5)",cs_neg_ns_new,0,0,0,0,,,,,0,27,27,85,,187.3075644999999,ä,0.6491247000003568,correct,,33,B,2024-05-15_09h59.58.985,gca_discrimination2,2022.2.4,143.9743840777962,
positions.xlsx,stimuli.xlsx,test.xlsx,stimuli/Test1.png,stimuli/Test2.png,stimuli/Social2.png,stimuli/Social1.png,stimuli/Nonsocial2.png,stimuli/Nonsocial1.png,stimuli/Social4.png,stimuli/Social3.png,stimuli/Nonsocial4.png,stimuli/Nonsocial3.png,"(0.7, 0.5)",cs_pos_ns_new,"(0.7, -0.5)",cs_pos_ns_new,0,0,0,0,,,,,0,28,28,77,,189.9046497999998,ä,0.5723128000008728,correct,,33,B,2024-05-15_09h59.58.985,gca_discrimination2,2022.2.4,143.9743840777962,
positions.xlsx,stimuli.xlsx,test.xlsx,stimuli/Test1.png,stimuli/Test2.png,stimuli/Social2.png,stimuli/Social1.png,stimuli/Nonsocial2.png,stimuli/Nonsocial1.png,stimuli/Social4.png,stimuli/Social3.png,stimuli/Nonsocial4.png,stimuli/Nonsocial3.png,"(0.7, -0.5)",cs_neg_s_new,"(-0.7, 0.5)",cs_neg_s_new,0,0,0,0,,,,,0,29,29,62,,193.1684163,ä,0.532978400000502,correct,,33,B,2024-05-15_09h59.58.985,gca_discrimination2,2022.2.4,143.9743840777962,
positions.xlsx,stimuli.xlsx,test.xlsx,stimuli/Test1.png,stimuli/Test2.png,stimuli/Social2.png,stimuli/Social1.png,stimuli/Nonsocial2.png,stimuli/Nonsocial1.png,stimuli/Social4.png,stimuli/Social3.png,stimuli/Nonsocial4.png,stimuli/Nonsocial3.png,"(-0.7, 0.5)",cs_pos_s_new,"(0.7, -0.5)",cs_pos_s_new,0,0,0,0,,,,,0,30,30,58,,196.20994249999967,ä,0.570653300000231,correct,,33,B,2024-05-15_09h59.58.985,gca_discrimination2,2022.2.4,143.9743840777962,
positions.xlsx,stimuli.xlsx,test.xlsx,stimuli/Test1.png,stimuli/Test2.png,stimuli/Social2.png,stimuli/Social1.png,stimuli/Nonsocial2.png,stimuli/Nonsocial1.png,stimuli/Social4.png,stimuli/Social3.png,stimuli/Nonsocial4.png,stimuli/Nonsocial3.png,"(-0.7, -0.5)",cs_neg_s,"(0.7, -0.5)",cs_neg_s,0,0,0,0,,,,,0,31,31,67,,198.69593439999971,ä,0.6688413000010769,correct,,33,B,2024-05-15_09h59.58.985,gca_discrimination2,2022.2.4,143.9743840777962,
positions.xlsx,stimuli.xlsx,test.xlsx,stimuli/Test1.png,stimuli/Test2.png,stimuli/Social2.png,stimuli/Social1.png,stimuli/Nonsocial2.png,stimuli/Nonsocial1.png,stimuli/Social4.png,stimuli/Social3.png,stimuli/Nonsocial4.png,stimuli/Nonsocial3.png,"(0.7, 0.5)",cs_pos_ns,"(0.7, -0.5)",cs_neg_ns_new,0,0,0,0,,,,,0,32,32,24,,201.57086179999988,l,0.4896980000012263,correct,,33,B,2024-05-15_09h59.58.985,gca_discrimination2,2022.2.4,143.9743840777962,
positions.xlsx,stimuli.xlsx,test.xlsx,stimuli/Test1.png,stimuli/Test2.png,stimuli/Social2.png,stimuli/Social1.png,stimuli/Nonsocial2.png,stimuli/Nonsocial1.png,stimuli/Social4.png,stimuli/Social3.png,stimuli/Nonsocial4.png,stimuli/Nonsocial3.png,"(-0.7, 0.5)",cs_neg_ns,"(0.7, -0.5)",cs_neg_ns,0,0,0,0,,,,,0,33,33,90,,204.57765130000007,ä,1.0039307000006374,correct,,33,B,2024-05-15_09h59.58.985,gca_discrimination2,2022.2.4,143.9743840777962,
positions.xlsx,stimuli.xlsx,test.xlsx,stimuli/Test1.png,stimuli/Test2.png,stimuli/Social2.png,stimuli/Social1.png,stimuli/Nonsocial2.png,stimuli/Nonsocial1.png,stimuli/Social4.png,stimuli/Social3.png,stimuli/Nonsocial4.png,stimuli/Nonsocial3.png,"(0.7, -0.5)",cs_pos_ns,"(-0.7, 0.5)",cs_pos_ns_new,0,0,0,0,,,,,0,34,34,38,,207.4456229999996,l,0.8078596000004836,correct,,33,B,2024-05-15_09h59.58.985,gca_discrimination2,2022.2.4,143.9743840777962,
positions.xlsx,stimuli.xlsx,test.xlsx,stimuli/Test1.png,stimuli/Test2.png,stimuli/Social2.png,stimuli/Social1.png,stimuli/Nonsocial2.png,stimuli/Nonsocial1.png,stimuli/Social4.png,stimuli/Social3.png,stimuli/Nonsocial4.png,stimuli/Nonsocial3.png,"(-0.7, 0.5)",cs_neg_s,"(-0.7, -0.5)",cs_neg_s,0,0,0,0,,,,,0,35,35,55,,210.44547710000006,ä,0.5838367000005746,correct,,33,B,2024-05-15_09h59.58.985,gca_discrimination2,2022.2.4,143.9743840777962,
positions.xlsx,stimuli.xlsx,test.xlsx,stimuli/Test1.png,stimuli/Test2.png,stimuli/Social2.png,stimuli/Social1.png,stimuli/Nonsocial2.png,stimuli/Nonsocial1.png,stimuli/Social4.png,stimuli/Social3.png,stimuli/Nonsocial4.png,stimuli/Nonsocial3.png,"(0.7, -0.5)",cs_pos_s_new,"(-0.7, -0.5)",cs_neg_s_new,0,0,0,0,,,,,0,36,36,16,,213.82033159999992,ä,0.7286837000001469,wrong,,33,B,2024-05-15_09h59.58.985,gca_discrimination2,2022.2.4,143.9743840777962,
positions.xlsx,stimuli.xlsx,test.xlsx,stimuli/Test1.png,stimuli/Test2.png,stimuli/Social2.png,stimuli/Social1.png,stimuli/Nonsocial2.png,stimuli/Nonsocial1.png,stimuli/Social4.png,stimuli/Social3.png,stimuli/Nonsocial4.png,stimuli/Nonsocial3.png,"(-0.7, 0.5)",cs_neg_ns_new,"(-0.7, -0.5)",cs_pos_ns,0,0,0,0,,,,,0,37,37,42,,216.95215519999965,l,0.9009571000005963,correct,,33,B,2024-05-15_09h59.58.985,gca_discrimination2,2022.2.4,143.9743840777962,
positions.xlsx,stimuli.xlsx,test.xlsx,stimuli/Test1.png,stimuli/Test2.png,stimuli/Social2.png,stimuli/Social1.png,stimuli/Nonsocial2.png,stimuli/Nonsocial1.png,stimuli/Social4.png,stimuli/Social3.png,stimuli/Nonsocial4.png,stimuli/Nonsocial3.png,"(-0.7, 0.5)",cs_neg_s_new,"(0.7, 0.5)",cs_pos_s_new,0,0,0,0,,,,,0,38,38,6,,220.19506550000006,l,0.5383456000008664,correct,,33,B,2024-05-15_09h59.58.985,gca_discrimination2,2022.2.4,143.9743840777962,
positions.xlsx,stimuli.xlsx,test.xlsx,stimuli/Test1.png,stimuli/Test2.png,stimuli/Social2.png,stimuli/Social1.png,stimuli/Nonsocial2.png,stimuli/Nonsocial1.png,stimuli/Social4.png,stimuli/Social3.png,stimuli/Nonsocial4.png,stimuli/Nonsocial3.png,"(-0.7, 0.5)",cs_neg_s_new,"(-0.7, -0.5)",cs_pos_s,0,0,0,0,,,,,0,39,39,22,,223.29215589999967,l,0.4483588000011878,correct,,33,B,2024-05-15_09h59.58.985,gca_discrimination2,2022.2.4,143.9743840777962,
positions.xlsx,stimuli.xlsx,test.xlsx,stimuli/Test1.png,stimuli/Test2.png,stimuli/Social2.png,stimuli/Social1.png,stimuli/Nonsocial2.png,stimuli/Nonsocial1.png,stimuli/Social4.png,stimuli/Social3.png,stimuli/Nonsocial4.png,stimuli/Nonsocial3.png,"(-0.7, -0.5)",cs_pos_ns,"(0.7, -0.5)",cs_neg_ns_new,0,0,0,0,,,,,0,40,40,32,,226.31983130000026,l,0.7728231000010055,correct,,33,B,2024-05-15_09h59.58.985,gca_discrimination2,2022.2.4,143.9743840777962,
positions.xlsx,stimuli.xlsx,test.xlsx,stimuli/Test1.png,stimuli/Test2.png,stimuli/Social2.png,stimuli/Social1.png,stimuli/Nonsocial2.png,stimuli/Nonsocial1.png,stimuli/Social4.png,stimuli/Social3.png,stimuli/Nonsocial4.png,stimuli/Nonsocial3.png,"(-0.7, -0.5)",cs_pos_s,"(-0.7, 0.5)",cs_neg_s,0,0,0,0,,,,,0,41,41,5,,229.83353999999963,l,0.7487043000000995,correct,,33,B,2024-05-15_09h59.58.985,gca_discrimination2,2022.2.4,143.9743840777962,
positions.xlsx,stimuli.xlsx,test.xlsx,stimuli/Test1.png,stimuli/Test2.png,stimuli/Social2.png,stimuli/Social1.png,stimuli/Nonsocial2.png,stimuli/Nonsocial1.png,stimuli/Social4.png,stimuli/Social3.png,stimuli/Nonsocial4.png,stimuli/Nonsocial3.png,"(-0.7, -0.5)",cs_pos_ns,"(0.7, -0.5)",cs_pos_ns,0,0,0,0,,,,,0,42,42,78,,233.32646469999963,ä,0.4626510000007329,correct,,33,B,2024-05-15_09h59.58.985,gca_discrimination2,2022.2.4,143.9743840777962,
positions.xlsx,stimuli.xlsx,test.xlsx,stimuli/Test1.png,stimuli/Test2.png,stimuli/Social2.png,stimuli/Social1.png,stimuli/Nonsocial2.png,stimuli/Nonsocial1.png,stimuli/Social4.png,stimuli/Social3.png,stimuli/Nonsocial4.png,stimuli/Nonsocial3.png,"(-0.7, 0.5)",cs_neg_ns_new,"(-0.7, -0.5)",cs_neg_ns_new,0,0,0,0,,,,,0,43,43,92,,236.0068983000001,ä,0.5914046000007147,correct,,33,B,2024-05-15_09h59.58.985,gca_discrimination2,2022.2.4,143.9743840777962,
positions.xlsx,stimuli.xlsx,test.xlsx,stimuli/Test1.png,stimuli/Test2.png,stimuli/Social2.png,stimuli/Social1.png,stimuli/Nonsocial2.png,stimuli/Nonsocial1.png,stimuli/Social4.png,stimuli/Social3.png,stimuli/Nonsocial4.png,stimuli/Nonsocial3.png,"(-0.7, 0.5)",cs_pos_s,"(-0.7, -0.5)",cs_neg_s,0,0,0,0,,,,,0,44,44,7,,239.24289009999939,l,0.4751635000002352,correct,,33,B,2024-05-15_09h59.58.985,gca_discrimination2,2022.2.4,143.9743840777962,
positions.xlsx,stimuli.xlsx,test.xlsx,stimuli/Test1.png,stimuli/Test2.png,stimuli/Social2.png,stimuli/Social1.png,stimuli/Nonsocial2.png,stimuli/Nonsocial1.png,stimuli/Social4.png,stimuli/Social3.png,stimuli/Nonsocial4.png,stimuli/Nonsocial3.png,"(0.7, -0.5)",cs_neg_s,"(0.7, 0.5)",cs_neg_s,0,0,0,0,,,,,0,45,45,59,,241.8816551,ä,0.7391151000010723,correct,,33,B,2024-05-15_09h59.58.985,gca_discrimination2,2022.2.4,143.9743840777962,
positions.xlsx,stimuli.xlsx,test.xlsx,stimuli/Test1.png,stimuli/Test2.png,stimuli/Social2.png,stimuli/Social1.png,stimuli/Nonsocial2.png,stimuli/Nonsocial1.png,stimuli/Social4.png,stimuli/Social3.png,stimuli/Nonsocial4.png,stimuli/Nonsocial3.png,"(0.7, 0.5)",cs_neg_s,"(0.7, -0.5)",cs_neg_s,0,0,0,0,,,,,0,46,46,49,,244.86766869999974,ä,0.5128729000007297,correct,,33,B,2024-05-15_09h59.58.985,gca_discrimination2,2022.2.4,143.9743840777962,
positions.xlsx,stimuli.xlsx,test.xlsx,stimuli/Test1.png,stimuli/Test2.png,stimuli/Social2.png,stimuli/Social1.png,stimuli/Nonsocial2.png,stimuli/Nonsocial1.png,stimuli/Social4.png,stimuli/Social3.png,stimuli/Nonsocial4.png,stimuli/Nonsocial3.png,"(0.7, -0.5)",cs_neg_s,"(-0.7, 0.5)",cs_neg_s,0,0,0,0,,,,,0,47,47,70,,247.32589730000018,ä,0.5509564000012688,correct,,33,B,2024-05-15_09h59.58.985,gca_discrimination2,2022.2.4,143.9743840777962,
positions.xlsx,stimuli.xlsx,test.xlsx,stimuli/Test1.png,stimuli/Test2.png,stimuli/Social2.png,stimuli/Social1.png,stimuli/Nonsocial2.png,stimuli/Nonsocial1.png,stimuli/Social4.png,stimuli/Social3.png,stimuli/Nonsocial4.png,stimuli/Nonsocial3.png,"(0.7, 0.5)",cs_neg_ns,"(0.7, -0.5)",cs_neg_ns,0,0,0,0,,,,,0,48,48,80,,250.27717080000002,l,0.5447309000001042,wrong,,33,B,2024-05-15_09h59.58.985,gca_discrimination2,2022.2.4,143.9743840777962,
positions.xlsx,stimuli.xlsx,test.xlsx,stimuli/Test1.png,stimuli/Test2.png,stimuli/Social2.png,stimuli/Social1.png,stimuli/Nonsocial2.png,stimuli/Nonsocial1.png,stimuli/Social4.png,stimuli/Social3.png,stimuli/Nonsocial4.png,stimuli/Nonsocial3.png,"(0.7, 0.5)",cs_neg_ns_new,"(-0.7, 0.5)",cs_neg_ns_new,0,0,0,0,,,,,0,49,49,73,,252.72149699999954,ä,0.6347425000003568,correct,,33,B,2024-05-15_09h59.58.985,gca_discrimination2,2022.2.4,143.9743840777962,
positions.xlsx,stimuli.xlsx,test.xlsx,stimuli/Test1.png,stimuli/Test2.png,stimuli/Social2.png,stimuli/Social1.png,stimuli/Nonsocial2.png,stimuli/Nonsocial1.png,stimuli/Social4.png,stimuli/Social3.png,stimuli/Nonsocial4.png,stimuli/Nonsocial3.png,"(0.7, 0.5)",cs_pos_s,"(-0.7, 0.5)",cs_pos_s,0,0,0,0,,,,,0,50,50,66,,255.33944520000023,ä,0.521174700001211,correct,,33,B,2024-05-15_09h59.58.985,gca_discrimination2,2022.2.4,143.9743840777962,
positions.xlsx,stimuli.xlsx,test.xlsx,stimuli/Test1.png,stimuli/Test2.png,stimuli/Social2.png,stimuli/Social1.png,stimuli/Nonsocial2.png,stimuli/Nonsocial1.png,stimuli/Social4.png,stimuli/Social3.png,stimuli/Nonsocial4.png,stimuli/Nonsocial3.png,"(-0.7, 0.5)",cs_pos_ns_new,"(-0.7, -0.5)",cs_pos_ns,0,0,0,0,,,,,0,51,51,35,,258.1518294999996,l,0.5247576000001573,correct,,33,B,2024-05-15_09h59.58.985,gca_discrimination2,2022.2.4,143.9743840777962,
positions.xlsx,stimuli.xlsx,test.xlsx,stimuli/Test1.png,stimuli/Test2.png,stimuli/Social2.png,stimuli/Social1.png,stimuli/Nonsocial2.png,stimuli/Nonsocial1.png,stimuli/Social4.png,stimuli/Social3.png,stimuli/Nonsocial4.png,stimuli/Nonsocial3.png,"(-0.7, 0.5)",cs_neg_s,"(0.7, -0.5)",cs_neg_s,0,0,0,0,,,,,0,52,52,48,,260.6308879999997,ä,0.5511769000004278,correct,,33,B,2024-05-15_09h59.58.985,gca_discrimination2,2022.2.4,143.9743840777962,
positions.xlsx,stimuli.xlsx,test.xlsx,stimuli/Test1.png,stimuli/Test2.png,stimuli/Social2.png,stimuli/Social1.png,stimuli/Nonsocial2.png,stimuli/Nonsocial1.png,stimuli/Social4.png,stimuli/Social3.png,stimuli/Nonsocial4.png,stimuli/Nonsocial3.png,"(0.7, -0.5)",cs_pos_ns_new,"(-0.7, 0.5)",cs_pos_ns,0,0,0,0,,,,,0,53,53,46,,263.3668846999999,l,0.486935200001426,correct,,33,B,2024-05-15_09h59.58.985,gca_discrimination2,2022.2.4,143.9743840777962,
positions.xlsx,stimuli.xlsx,test.xlsx,stimuli/Test1.png,stimuli/Test2.png,stimuli/Social2.png,stimuli/Social1.png,stimuli/Nonsocial2.png,stimuli/Nonsocial1.png,stimuli/Social4.png,stimuli/Social3.png,stimuli/Nonsocial4.png,stimuli/Nonsocial3.png,"(0.7, 0.5)",cs_pos_s,"(-0.7, -0.5)",cs_neg_s,0,0,0,0,,,,,0,54,54,8,,266.5820555,l,0.8473534000013387,correct,,33,B,2024-05-15_09h59.58.985,gca_discrimination2,2022.2.4,143.9743840777962,
positions.xlsx,stimuli.xlsx,test.xlsx,stimuli/Test1.png,stimuli/Test2.png,stimuli/Social2.png,stimuli/Social1.png,stimuli/Nonsocial2.png,stimuli/Nonsocial1.png,stimuli/Social4.png,stimuli/Social3.png,stimuli/Nonsocial4.png,stimuli/Nonsocial3.png,"(0.7, -0.5)",cs_neg_ns_new,"(-0.7, 0.5)",cs_pos_ns,0,0,0,0,,,,,0,55,55,47,,269.8874439000001,l,0.8535468999998557,correct,,33,B,2024-05-15_09h59.58.985,gca_discrimination2,2022.2.4,143.9743840777962,
positions.xlsx,stimuli.xlsx,test.xlsx,stimuli/Test1.png,stimuli/Test2.png,stimuli/Social2.png,stimuli/Social1.png,stimuli/Nonsocial2.png,stimuli/Nonsocial1.png,stimuli/Social4.png,stimuli/Social3.png,stimuli/Nonsocial4.png,stimuli/Nonsocial3.png,"(-0.7, -0.5)",cs_neg_ns,"(-0.7, 0.5)",cs_neg_ns_new,0,0,0,0,,,,,0,56,56,27,,273.01928150000003,l,0.6330038000005516,correct,,33,B,2024-05-15_09h59.58.985,gca_discrimination2,2022.2.4,143.9743840777962,
positions.xlsx,stimuli.xlsx,test.xlsx,stimuli/Test1.png,stimuli/Test2.png,stimuli/Social2.png,stimuli/Social1.png,stimuli/Nonsocial2.png,stimuli/Nonsocial1.png,stimuli/Social4.png,stimuli/Social3.png,stimuli/Nonsocial4.png,stimuli/Nonsocial3.png,"(0.7, 0.5)",cs_pos_s,"(0.7, -0.5)",cs_neg_s_new,0,0,0,0,,,,,0,57,57,3,,276.2969168999998,l,0.4530813000010312,correct,,33,B,2024-05-15_09h59.58.985,gca_discrimination2,2022.2.4,143.9743840777962,
positions.xlsx,stimuli.xlsx,test.xlsx,stimuli/Test1.png,stimuli/Test2.png,stimuli/Social2.png,stimuli/Social1.png,stimuli/Nonsocial2.png,stimuli/Nonsocial1.png,stimuli/Social4.png,stimuli/Social3.png,stimuli/Nonsocial4.png,stimuli/Nonsocial3.png,"(0.7, -0.5)",cs_neg_s,"(-0.7, -0.5)",cs_neg_s,0,0,0,0,,,,,0,58,58,64,,279.5606766000001,ä,0.49223060000076657,correct,,33,B,2024-05-15_09h59.58.985,gca_discrimination2,2022.2.4,143.9743840777962,
positions.xlsx,stimuli.xlsx,test.xlsx,stimuli/Test1.png,stimuli/Test2.png,stimuli/Social2.png,stimuli/Social1.png,stimuli/Nonsocial2.png,stimuli/Nonsocial1.png,stimuli/Social4.png,stimuli/Social3.png,stimuli/Nonsocial4.png,stimuli/Nonsocial3.png,"(0.7, -0.5)",cs_neg_s_new,"(0.7, 0.5)",cs_neg_s_new,0,0,0,0,,,,,0,59,59,65,,282.74806309999985,ä,0.8166175000005751,correct,,33,B,2024-05-15_09h59.58.985,gca_discrimination2,2022.2.4,143.9743840777962,
positions.xlsx,stimuli.xlsx,test.xlsx,stimuli/Test1.png,stimuli/Test2.png,stimuli/Social2.png,stimuli/Social1.png,stimuli/Nonsocial2.png,stimuli/Nonsocial1.png,stimuli/Social4.png,stimuli/Social3.png,stimuli/Nonsocial4.png,stimuli/Nonsocial3.png,"(0.7, -0.5)",cs_pos_ns,"(-0.7, 0.5)",cs_pos_ns,0,0,0,0,,,,,0,60,60,91,,286.0187599000001,ä,0.666373800000656,correct,,33,B,2024-05-15_09h59.58.985,gca_discrimination2,2022.2.4,143.9743840777962,
positions.xlsx,stimuli.xlsx,test.xlsx,stimuli/Test1.png,stimuli/Test2.png,stimuli/Social2.png,stimuli/Social1.png,stimuli/Nonsocial2.png,stimuli/Nonsocial1.png,stimuli/Social4.png,stimuli/Social3.png,stimuli/Nonsocial4.png,stimuli/Nonsocial3.png,"(0.7, 0.5)",cs_neg_ns_new,"(-0.7, 0.5)",cs_neg_ns,0,0,0,0,,,,,0,61,61,26,,288.59502639999937,l,1.0816994000006162,correct,,33,B,2024-05-15_09h59.58.985,gca_discrimination2,2022.2.4,143.9743840777962,
positions.xlsx,stimuli.xlsx,test.xlsx,stimuli/Test1.png,stimuli/Test2.png,stimuli/Social2.png,stimuli/Social1.png,stimuli/Nonsocial2.png,stimuli/Nonsocial1.png,stimuli/Social4.png,stimuli/Social3.png,stimuli/Nonsocial4.png,stimuli/Nonsocial3.png,"(0.7, -0.5)",cs_pos_s,"(-0.7, -0.5)",cs_pos_s,0,0,0,0,,,,,0,62,62,50,,291.72684089999984,ä,0.4859484999997221,correct,,33,B,2024-05-15_09h59.58.985,gca_discrimination2,2022.2.4,143.9743840777962,
positions.xlsx,stimuli.xlsx,test.xlsx,stimuli/Test1.png,stimuli/Test2.png,stimuli/Social2.png,stimuli/Social1.png,stimuli/Nonsocial2.png,stimuli/Nonsocial1.png,stimuli/Social4.png,stimuli/Social3.png,stimuli/Nonsocial4.png,stimuli/Nonsocial3.png,"(-0.7, -0.5)",cs_pos_ns_new,"(-0.7, 0.5)",cs_pos_ns_new,0,0,0,0,,,,,0,63,63,76,,294.1295285999995,ä,0.7388423000002149,correct,,33,B,2024-05-15_09h59.58.985,gca_discrimination2,2022.2.4,143.9743840777962,
positions.xlsx,stimuli.xlsx,test.xlsx,stimuli/Test1.png,stimuli/Test2.png,stimuli/Social2.png,stimuli/Social1.png,stimuli/Nonsocial2.png,stimuli/Nonsocial1.png,stimuli/Social4.png,stimuli/Social3.png,stimuli/Nonsocial4.png,stimuli/Nonsocial3.png,"(0.7, -0.5)",cs_pos_ns_new,"(0.7, 0.5)",cs_pos_ns_new,0,0,0,0,,,,,0,64,64,87,,296.8030348000002,ä,0.8818950000004406,correct,,33,B,2024-05-15_09h59.58.985,gca_discrimination2,2022.2.4,143.9743840777962,
positions.xlsx,stimuli.xlsx,test.xlsx,stimuli/Test1.png,stimuli/Test2.png,stimuli/Social2.png,stimuli/Social1.png,stimuli/Nonsocial2.png,stimuli/Nonsocial1.png,stimuli/Social4.png,stimuli/Social3.png,stimuli/Nonsocial4.png,stimuli/Nonsocial3.png,"(-0.7, 0.5)",cs_neg_s,"(-0.7, -0.5)",cs_pos_s_new,0,0,0,0,,,,,0,65,65,2,,299.8723454000001,l,0.6920116000010239,correct,,33,B,2024-05-15_09h59.58.985,gca_discrimination2,2022.2.4,143.9743840777962,
positions.xlsx,stimuli.xlsx,test.xlsx,stimuli/Test1.png,stimuli/Test2.png,stimuli/Social2.png,stimuli/Social1.png,stimuli/Nonsocial2.png,stimuli/Nonsocial1.png,stimuli/Social4.png,stimuli/Social3.png,stimuli/Nonsocial4.png,stimuli/Nonsocial3.png,"(-0.7, 0.5)",cs_pos_s,"(0.7, -0.5)",cs_pos_s,0,0,0,0,,,,,0,66,66,52,,303.17081400000006,l,0.7786423000006835,wrong,,33,B,2024-05-15_09h59.58.985,gca_discrimination2,2022.2.4,143.9743840777962,
positions.xlsx,stimuli.xlsx,test.xlsx,stimuli/Test1.png,stimuli/Test2.png,stimuli/Social2.png,stimuli/Social1.png,stimuli/Nonsocial2.png,stimuli/Nonsocial1.png,stimuli/Social4.png,stimuli/Social3.png,stimuli/Nonsocial4.png,stimuli/Nonsocial3.png,"(-0.7, -0.5)",cs_neg_ns_new,"(0.7, -0.5)",cs_pos_ns,0,0,0,0,,,,,0,67,67,31,,305.9970838999998,l,0.679334800000106,correct,,33,B,2024-05-15_09h59.58.985,gca_discrimination2,2022.2.4,143.9743840777962,
positions.xlsx,stimuli.xlsx,test.xlsx,stimuli/Test1.png,stimuli/Test2.png,stimuli/Social2.png,stimuli/Social1.png,stimuli/Nonsocial2.png,stimuli/Nonsocial1.png,stimuli/Social4.png,stimuli/Social3.png,stimuli/Nonsocial4.png,stimuli/Nonsocial3.png,"(-0.7, -0.5)",cs_neg_ns_new,"(0.7, 0.5)",cs_neg_ns,0,0,0,0,,,,,0,68,68,34,,309.4691495999996,ä,0.7197065000000293,wrong,,33,B,2024-05-15_09h59.58.985,gca_discrimination2,2022.2.4,143.9743840777962,
positions.xlsx,stimuli.xlsx,test.xlsx,stimuli/Test1.png,stimuli/Test2.png,stimuli/Social2.png,stimuli/Social1.png,stimuli/Nonsocial2.png,stimuli/Nonsocial1.png,stimuli/Social4.png,stimuli/Social3.png,stimuli/Nonsocial4.png,stimuli/Nonsocial3.png,"(-0.7, 0.5)",cs_neg_s_new,"(0.7, 0.5)",cs_neg_s_new,0,0,0,0,,,,,0,69,69,69,,312.73291919999974,ä,0.26432410000052187,correct,,33,B,2024-05-15_09h59.58.985,gca_discrimination2,2022.2.4,143.9743840777962,
positions.xlsx,stimuli.xlsx,test.xlsx,stimuli/Test1.png,stimuli/Test2.png,stimuli/Social2.png,stimuli/Social1.png,stimuli/Nonsocial2.png,stimuli/Nonsocial1.png,stimuli/Social4.png,stimuli/Social3.png,stimuli/Nonsocial4.png,stimuli/Nonsocial3.png,"(0.7, -0.5)",cs_neg_ns_new,"(-0.7, 0.5)",cs_neg_ns_new,0,0,0,0,,,,,0,70,70,82,,315.7883701999999,ä,0.5524228000003859,correct,,33,B,2024-05-15_09h59.58.985,gca_discrimination2,2022.2.4,143.9743840777962,
positions.xlsx,stimuli.xlsx,test.xlsx,stimuli/Test1.png,stimuli/Test2.png,stimuli/Social2.png,stimuli/Social1.png,stimuli/Nonsocial2.png,stimuli/Nonsocial1.png,stimuli/Social4.png,stimuli/Social3.png,stimuli/Nonsocial4.png,stimuli/Nonsocial3.png,"(-0.7, 0.5)",cs_pos_ns,"(-0.7, -0.5)",cs_pos_ns,0,0,0,0,,,,,0,71,71,93,,318.2049777000002,ä,0.599897900000542,correct,,33,B,2024-05-15_09h59.58.985,gca_discrimination2,2022.2.4,143.9743840777962,
positions.xlsx,stimuli.xlsx,test.xlsx,stimuli/Test1.png,stimuli/Test2.png,stimuli/Social2.png,stimuli/Social1.png,stimuli/Nonsocial2.png,stimuli/Nonsocial1.png,stimuli/Social4.png,stimuli/Social3.png,stimuli/Nonsocial4.png,stimuli/Nonsocial3.png,"(0.7, -0.5)",cs_pos_s,"(0.7, 0.5)",cs_pos_s,0,0,0,0,,,,,0,72,72,61,,321.1144964999994,ä,0.32300020000093355,correct,,33,B,2024-05-15_09h59.58.985,gca_discrimination2,2022.2.4,143.9743840777962,
positions.xlsx,stimuli.xlsx,test.xlsx,stimuli/Test1.png,stimuli/Test2.png,stimuli/Social2.png,stimuli/Social1.png,stimuli/Nonsocial2.png,stimuli/Nonsocial1.png,stimuli/Social4.png,stimuli/Social3.png,stimuli/Nonsocial4.png,stimuli/Nonsocial3.png,"(-0.7, 0.5)",cs_neg_ns,"(-0.7, -0.5)",cs_neg_ns,0,0,0,0,,,,,0,73,73,83,,324.24633749999975,ä,0.6958162000009906,correct,,33,B,2024-05-15_09h59.58.985,gca_discrimination2,2022.2.4,143.9743840777962,
positions.xlsx,stimuli.xlsx,test.xlsx,stimuli/Test1.png,stimuli/Test2.png,stimuli/Social2.png,stimuli/Social1.png,stimuli/Nonsocial2.png,stimuli/Nonsocial1.png,stimuli/Social4.png,stimuli/Social3.png,stimuli/Nonsocial4.png,stimuli/Nonsocial3.png,"(-0.7, 0.5)",cs_pos_ns_new,"(0.7, -0.5)",cs_pos_ns_new,0,0,0,0,,,,,0,74,74,72,,327.1351227999994,ä,0.48624000000017986,correct,,33,B,2024-05-15_09h59.58.985,gca_discrimination2,2022.2.4,143.9743840777962,
positions.xlsx,stimuli.xlsx,test.xlsx,stimuli/Test1.png,stimuli/Test2.png,stimuli/Social2.png,stimuli/Social1.png,stimuli/Nonsocial2.png,stimuli/Nonsocial1.png,stimuli/Social4.png,stimuli/Social3.png,stimuli/Nonsocial4.png,stimuli/Nonsocial3.png,"(0.7, 0.5)",cs_pos_s,"(-0.7, -0.5)",cs_neg_s_new,0,0,0,0,,,,,0,75,75,19,,330.3710790999994,l,0.7621344000008321,correct,,33,B,2024-05-15_09h59.58.985,gca_discrimination2,2022.2.4,143.9743840777962,
positions.xlsx,stimuli.xlsx,test.xlsx,stimuli/Test1.png,stimuli/Test2.png,stimuli/Social2.png,stimuli/Social1.png,stimuli/Nonsocial2.png,stimuli/Nonsocial1.png,stimuli/Social4.png,stimuli/Social3.png,stimuli/Nonsocial4.png,stimuli/Nonsocial3.png,"(0.7, -0.5)",cs_pos_s,"(-0.7, 0.5)",cs_pos_s,0,0,0,0,,,,,0,76,76,51,,333.35708350000004,ä,0.4559703000004447,correct,,33,B,2024-05-15_09h59.58.985,gca_discrimination2,2022.2.4,143.9743840777962,
positions.xlsx,stimuli.xlsx,test.xlsx,stimuli/Test1.png,stimuli/Test2.png,stimuli/Social2.png,stimuli/Social1.png,stimuli/Nonsocial2.png,stimuli/Nonsocial1.png,stimuli/Social4.png,stimuli/Social3.png,stimuli/Nonsocial4.png,stimuli/Nonsocial3.png,"(0.7, -0.5)",cs_pos_s_new,"(0.7, 0.5)",cs_pos_s_new,0,0,0,0,,,,,0,77,77,71,,335.7666657999998,ä,0.5174825000003693,correct,,33,B,2024-05-15_09h59.58.985,gca_discrimination2,2022.2.4,143.9743840777962,
positions.xlsx,stimuli.xlsx,test.xlsx,stimuli/Test1.png,stimuli/Test2.png,stimuli/Social2.png,stimuli/Social1.png,stimuli/Nonsocial2.png,stimuli/Nonsocial1.png,stimuli/Social4.png,stimuli/Social3.png,stimuli/Nonsocial4.png,stimuli/Nonsocial3.png,"(-0.7, 0.5)",cs_pos_ns_new,"(0.7, 0.5)",cs_pos_ns_new,0,0,0,0,,,,,0,78,78,81,,338.4610286999996,ä,0.5199182000005749,correct,,33,B,2024-05-15_09h59.58.985,gca_discrimination2,2022.2.4,143.9743840777962,
positions.xlsx,stimuli.xlsx,test.xlsx,stimuli/Test1.png,stimuli/Test2.png,stimuli/Social2.png,stimuli/Social1.png,stimuli/Nonsocial2.png,stimuli/Nonsocial1.png,stimuli/Social4.png,stimuli/Social3.png,stimuli/Nonsocial4.png,stimuli/Nonsocial3.png,"(-0.7, -0.5)",cs_pos_s,"(-0.7, 0.5)",cs_pos_s,0,0,0,0,,,,,0,79,79,56,,341.25258309999936,ä,0.4640325999998822,correct,,33,B,2024-05-15_09h59.58.985,gca_discrimination2,2022.2.4,143.9743840777962,
positions.xlsx,stimuli.xlsx,test.xlsx,stimuli/Test1.png,stimuli/Test2.png,stimuli/Social2.png,stimuli/Social1.png,stimuli/Nonsocial2.png,stimuli/Nonsocial1.png,stimuli/Social4.png,stimuli/Social3.png,stimuli/Nonsocial4.png,stimuli/Nonsocial3.png,"(0.7, 0.5)",cs_pos_ns_new,"(-0.7, 0.5)",cs_pos_ns_new,0,0,0,0,,,,,0,80,80,84,,343.7316297999996,ä,0.304834600000504,correct,,33,B,2024-05-15_09h59.58.985,gca_discrimination2,2022.2.4,143.9743840777962,
positions.xlsx,stimuli.xlsx,test.xlsx,stimuli/Test1.png,stimuli/Test2.png,stimuli/Social2.png,stimuli/Social1.png,stimuli/Nonsocial2.png,stimuli/Nonsocial1.png,stimuli/Social4.png,stimuli/Social3.png,stimuli/Nonsocial4.png,stimuli/Nonsocial3.png,"(-0.7, -0.5)",cs_pos_ns,"(-0.7, 0.5)",cs_neg_ns_new,0,0,0,0,,,,,0,81,81,29,,346.8357165999996,l,0.4736155000000508,correct,,33,B,2024-05-15_09h59.58.985,gca_discrimination2,2022.2.4,143.9743840777962,
positions.xlsx,stimuli.xlsx,test.xlsx,stimuli/Test1.png,stimuli/Test2.png,stimuli/Social2.png,stimuli/Social1.png,stimuli/Nonsocial2.png,stimuli/Nonsocial1.png,stimuli/Social4.png,stimuli/Social3.png,stimuli/Nonsocial4.png,stimuli/Nonsocial3.png,"(0.7, -0.5)",cs_neg_s,"(0.7, 0.5)",cs_pos_s_new,0,0,0,0,,,,,0,82,82,13,,349.9952856,l,0.8010597000002235,correct,,33,B,2024-05-15_09h59.58.985,gca_discrimination2,2022.2.4,143.9743840777962,
positions.xlsx,stimuli.xlsx,test.xlsx,stimuli/Test1.png,stimuli/Test2.png,stimuli/Social2.png,stimuli/Social1.png,stimuli/Nonsocial2.png,stimuli/Nonsocial1.png,stimuli/Social4.png,stimuli/Social3.png,stimuli/Nonsocial4.png,stimuli/Nonsocial3.png,"(-0.7, -0.5)",cs_pos_ns,"(0.7, 0.5)",cs_neg_ns_new,0,0,0,0,,,,,0,83,83,39,,352.84936469999957,l,0.8193946000001233,correct,,33,B,2024-05-15_09h59.58.985,gca_discrimination2,2022.2.4,143.9743840777962,
positions.xlsx,stimuli.xlsx,test.xlsx,stimuli/Test1.png,stimuli/Test2.png,stimuli/Social2.png,stimuli/Social1.png,stimuli/Nonsocial2.png,stimuli/Nonsocial1.png,stimuli/Social4.png,stimuli/Social3.png,stimuli/Nonsocial4.png,stimuli/Nonsocial3.png,"(0.7, 0.5)",cs_pos_s_new,"(-0.7, -0.5)",cs_neg_s_new,0,0,0,0,,,,,0,84,84,18,,356.4325285999994,l,0.8998991000007663,correct,,33,B,2024-05-15_09h59.58.985,gca_discrimination2,2022.2.4,143.9743840777962,
positions.xlsx,stimuli.xlsx,test.xlsx,stimuli/Test1.png,stimuli/Test2.png,stimuli/Social2.png,stimuli/Social1.png,stimuli/Nonsocial2.png,stimuli/Nonsocial1.png,stimuli/Social4.png,stimuli/Social3.png,stimuli/Nonsocial4.png,stimuli/Nonsocial3.png,"(-0.7, 0.5)",cs_pos_ns_new,"(0.7, -0.5)",cs_neg_ns_new,0,0,0,0,,,,,0,85,85,41,,360.0226464999996,l,0.4154736000000412,correct,,33,B,2024-05-15_09h59.58.985,gca_discrimination2,2022.2.4,143.9743840777962,
positions.xlsx,stimuli.xlsx,test.xlsx,stimuli/Test1.png,stimuli/Test2.png,stimuli/Social2.png,stimuli/Social1.png,stimuli/Nonsocial2.png,stimuli/Nonsocial1.png,stimuli/Social4.png,stimuli/Social3.png,stimuli/Nonsocial4.png,stimuli/Nonsocial3.png,"(0.7, 0.5)",cs_pos_ns,"(-0.7, -0.5)",cs_pos_ns,0,0,0,0,,,,,0,86,86,74,,362.45309309999993,ä,0.48722360000101617,correct,,33,B,2024-05-15_09h59.58.985,gca_discrimination2,2022.2.4,143.9743840777962,
positions.xlsx,stimuli.xlsx,test.xlsx,stimuli/Test1.png,stimuli/Test2.png,stimuli/Social2.png,stimuli/Social1.png,stimuli/Nonsocial2.png,stimuli/Nonsocial1.png,stimuli/Social4.png,stimuli/Social3.png,stimuli/Nonsocial4.png,stimuli/Nonsocial3.png,"(-0.7, -0.5)",cs_neg_s_new,"(-0.7, 0.5)",cs_pos_s_new,0,0,0,0,,,,,0,87,87,4,,365.33490939999956,ä,0.6700920000012047,wrong,,33,B,2024-05-15_09h59.58.985,gca_discrimination2,2022.2.4,143.9743840777962,
positions.xlsx,stimuli.xlsx,test.xlsx,stimuli/Test1.png,stimuli/Test2.png,stimuli/Social2.png,stimuli/Social1.png,stimuli/Nonsocial2.png,stimuli/Nonsocial1.png,stimuli/Social4.png,stimuli/Social3.png,stimuli/Nonsocial4.png,stimuli/Nonsocial3.png,"(0.7, 0.5)",cs_pos_s_new,"(-0.7, 0.5)",cs_neg_s_new,0,0,0,0,,,,,0,88,88,12,,368.44591409999975,l,0.662401100000352,correct,,33,B,2024-05-15_09h59.58.985,gca_discrimination2,2022.2.4,143.9743840777962,
positions.xlsx,stimuli.xlsx,test.xlsx,stimuli/Test1.png,stimuli/Test2.png,stimuli/Social2.png,stimuli/Social1.png,stimuli/Nonsocial2.png,stimuli/Nonsocial1.png,stimuli/Social4.png,stimuli/Social3.png,stimuli/Nonsocial4.png,stimuli/Nonsocial3.png,"(-0.7, -0.5)",cs_neg_ns,"(0.7, 0.5)",cs_neg_ns_new,0,0,0,0,,,,,0,89,89,36,,371.3763487999995,l,0.6130807999998069,correct,,33,B,2024-05-15_09h59.58.985,gca_discrimination2,2022.2.4,143.9743840777962,
positions.xlsx,stimuli.xlsx,test.xlsx,stimuli/Test1.png,stimuli/Test2.png,stimuli/Social2.png,stimuli/Social1.png,stimuli/Nonsocial2.png,stimuli/Nonsocial1.png,stimuli/Social4.png,stimuli/Social3.png,stimuli/Nonsocial4.png,stimuli/Nonsocial3.png,"(0.7, 0.5)",cs_neg_ns,"(-0.7, 0.5)",cs_neg_ns,0,0,0,0,,,,,0,90,90,79,,374.0151463000002,ä,0.6456306000009135,correct,,33,B,2024-05-15_09h59.58.985,gca_discrimination2,2022.2.4,143.9743840777962,
positions.xlsx,stimuli.xlsx,test.xlsx,stimuli/Test1.png,stimuli/Test2.png,stimuli/Social2.png,stimuli/Social1.png,stimuli/Nonsocial2.png,stimuli/Nonsocial1.png,stimuli/Social4.png,stimuli/Social3.png,stimuli/Nonsocial4.png,stimuli/Nonsocial3.png,"(-0.7, 0.5)",cs_pos_s_new,"(-0.7, -0.5)",cs_neg_s_new,0,0,0,0,,,,,0,91,91,0,,376.89693139999963,l,0.6610739000007015,correct,,33,B,2024-05-15_09h59.58.985,gca_discrimination2,2022.2.4,143.9743840777962,
positions.xlsx,stimuli.xlsx,test.xlsx,stimuli/Test1.png,stimuli/Test2.png,stimuli/Social2.png,stimuli/Social1.png,stimuli/Nonsocial2.png,stimuli/Nonsocial1.png,stimuli/Social4.png,stimuli/Social3.png,stimuli/Nonsocial4.png,stimuli/Nonsocial3.png,"(0.7, -0.5)",cs_neg_ns,"(-0.7, -0.5)",cs_neg_ns,0,0,0,0,,,,,0,92,92,86,,379.8065606,ä,0.42337770000085584,correct,,33,B,2024-05-15_09h59.58.985,gca_discrimination2,2022.2.4,143.9743840777962,
positions.xlsx,stimuli.xlsx,test.xlsx,stimuli/Test1.png,stimuli/Test2.png,stimuli/Social2.png,stimuli/Social1.png,stimuli/Nonsocial2.png,stimuli/Nonsocial1.png,stimuli/Social4.png,stimuli/Social3.png,stimuli/Nonsocial4.png,stimuli/Nonsocial3.png,"(0.7, -0.5)",cs_neg_ns,"(-0.7, 0.5)",cs_pos_ns,0,0,0,0,,,,,0,93,93,45,,382.1745043000001,l,0.6936395000011544,correct,,33,B,2024-05-15_09h59.58.985,gca_discrimination2,2022.2.4,143.9743840777962,
positions.xlsx,stimuli.xlsx,test.xlsx,stimuli/Test1.png,stimuli/Test2.png,stimuli/Social2.png,stimuli/Social1.png,stimuli/Nonsocial2.png,stimuli/Nonsocial1.png,stimuli/Social4.png,stimuli/Social3.png,stimuli/Nonsocial4.png,stimuli/Nonsocial3.png,"(0.7, 0.5)",cs_neg_s_new,"(-0.7, 0.5)",cs_neg_s_new,0,0,0,0,,,,,0,94,94,54,,384.9938616999998,ä,0.4982461000008698,correct,,33,B,2024-05-15_09h59.58.985,gca_discrimination2,2022.2.4,143.9743840777962,
positions.xlsx,stimuli.xlsx,test.xlsx,stimuli/Test1.png,stimuli/Test2.png,stimuli/Social2.png,stimuli/Social1.png,stimuli/Nonsocial2.png,stimuli/Nonsocial1.png,stimuli/Social4.png,stimuli/Social3.png,stimuli/Nonsocial4.png,stimuli/Nonsocial3.png,"(-0.7, 0.5)",cs_neg_ns_new,"(0.7, -0.5)",cs_pos_ns_new,0,0,0,0,,,,,0,95,95,44,,388.2575995999996,l,0.8996832000002541,correct,,33,B,2024-05-15_09h59.58.985,gca_discrimination2,2022.2.4,143.9743840777962,
