posFile,stimFile,testFile,test1,test2,cs_neg_s,cs_pos_s,cs_neg_ns,cs_pos_ns,cs_neg_s_new,cs_pos_s_new,cs_neg_ns_new,cs_pos_ns_new,position1,stim1,position2,stim2,blocks.thisRepN,blocks.thisTrialN,blocks.thisN,blocks.thisIndex,learning_trials.thisRepN,learning_trials.thisTrialN,learning_trials.thisN,learning_trials.thisIndex,trials.thisRepN,trials.thisTrialN,trials.thisN,trials.thisIndex,textStart.started,key.started,key.keys,correctness,key.rt,textStartTask.started,participant,group,date,expName,psychopyVersion,frameRate,
positions.xlsx,stimuli.xlsx,test.xlsx,stimuli/Test1.png,stimuli/Test2.png,stimuli/Social4.png,stimuli/Social3.png,stimuli/Nonsocial4.png,stimuli/Nonsocial3.png,stimuli/Social2.png,stimuli/Social1.png,stimuli/Nonsocial2.png,stimuli/Nonsocial1.png,"(0.7, -0.5)",test2,"(-0.7, -0.5)",test2,0,0,0,0,0,0,0,1,,,,,17.451988499989966,44.596743499991135,None,no answer,,,38,D,2024-05-16_08h07.51.496,gca_discrimination2,2022.2.4,144.00838705867812,
positions.xlsx,stimuli.xlsx,test.xlsx,stimuli/Test1.png,stimuli/Test2.png,stimuli/Social4.png,stimuli/Social3.png,stimuli/Nonsocial4.png,stimuli/Nonsocial3.png,stimuli/Social2.png,stimuli/Social1.png,stimuli/Nonsocial2.png,stimuli/Nonsocial1.png,"(-0.7, 0.5)",test2,"(0.7, 0.5)",test1,0,0,0,0,0,1,1,9,,,,,,50.408945599992876,l,correct,0.2764785000035772,,38,D,2024-05-16_08h07.51.496,gca_discrimination2,2022.2.4,144.00838705867812,
positions.xlsx,stimuli.xlsx,test.xlsx,stimuli/Test1.png,stimuli/Test2.png,stimuli/Social4.png,stimuli/Social3.png,stimuli/Nonsocial4.png,stimuli/Nonsocial3.png,stimuli/Social2.png,stimuli/Social1.png,stimuli/Nonsocial2.png,stimuli/Nonsocial1.png,"(-0.7, -0.5)",test2,"(-0.7, 0.5)",test1,0,0,0,0,0,2,2,8,,,,,,54.51994410000043,l,correct,0.2935314000060316,,38,D,2024-05-16_08h07.51.496,gca_discrimination2,2022.2.4,144.00838705867812,
positions.xlsx,stimuli.xlsx,test.xlsx,stimuli/Test1.png,stimuli/Test2.png,stimuli/Social4.png,stimuli/Social3.png,stimuli/Nonsocial4.png,stimuli/Nonsocial3.png,stimuli/Social2.png,stimuli/Social1.png,stimuli/Nonsocial2.png,stimuli/Nonsocial1.png,"(0.7, 0.5)",test1,"(-0.7, 0.5)",test2,0,0,0,0,0,3,3,0,,,,,,59.31836249999469,l,correct,0.3348985000047833,,38,D,2024-05-16_08h07.51.496,gca_discrimination2,2022.2.4,144.00838705867812,
positions.xlsx,stimuli.xlsx,test.xlsx,stimuli/Test1.png,stimuli/Test2.png,stimuli/Social4.png,stimuli/Social3.png,stimuli/Nonsocial4.png,stimuli/Nonsocial3.png,stimuli/Social2.png,stimuli/Social1.png,stimuli/Nonsocial2.png,stimuli/Nonsocial1.png,"(0.7, -0.5)",test1,"(-0.7, 0.5)",test1,0,0,0,0,0,4,4,3,,,,,,64.4014870999963,l,wrong,0.19585649999498855,,38,D,2024-05-16_08h07.51.496,gca_discrimination2,2022.2.4,144.00838705867812,
positions.xlsx,stimuli.xlsx,test.xlsx,stimuli/Test1.png,stimuli/Test2.png,stimuli/Social4.png,stimuli/Social3.png,stimuli/Nonsocial4.png,stimuli/Nonsocial3.png,stimuli/Social2.png,stimuli/Social1.png,stimuli/Nonsocial2.png,stimuli/Nonsocial1.png,"(0.7, 0.5)",test1,"(-0.7, 0.5)",test2,0,0,0,0,0,5,5,6,,,,,,68.93598989999737,l,correct,0.4134894000017084,,38,D,2024-05-16_08h07.51.496,gca_discrimination2,2022.2.4,144.00838705867812,
positions.xlsx,stimuli.xlsx,test.xlsx,stimuli/Test1.png,stimuli/Test2.png,stimuli/Social4.png,stimuli/Social3.png,stimuli/Nonsocial4.png,stimuli/Nonsocial3.png,stimuli/Social2.png,stimuli/Social1.png,stimuli/Nonsocial2.png,stimuli/Nonsocial1.png,"(-0.7, -0.5)",test1,"(-0.7, 0.5)",test1,0,0,0,0,0,6,6,2,,,,,,74.1302474999975,ä,correct,0.4114673000003677,,38,D,2024-05-16_08h07.51.496,gca_discrimination2,2022.2.4,144.00838705867812,
positions.xlsx,stimuli.xlsx,test.xlsx,stimuli/Test1.png,stimuli/Test2.png,stimuli/Social4.png,stimuli/Social3.png,stimuli/Nonsocial4.png,stimuli/Nonsocial3.png,stimuli/Social2.png,stimuli/Social1.png,stimuli/Nonsocial2.png,stimuli/Nonsocial1.png,"(0.7, -0.5)",test2,"(-0.7, 0.5)",test2,0,0,0,0,0,7,7,7,,,,,,78.74810769999749,ä,correct,0.23315780000120867,,38,D,2024-05-16_08h07.51.496,gca_discrimination2,2022.2.4,144.00838705867812,
positions.xlsx,stimuli.xlsx,test.xlsx,stimuli/Test1.png,stimuli/Test2.png,stimuli/Social4.png,stimuli/Social3.png,stimuli/Nonsocial4.png,stimuli/Nonsocial3.png,stimuli/Social2.png,stimuli/Social1.png,stimuli/Nonsocial2.png,stimuli/Nonsocial1.png,"(0.7, 0.5)",test1,"(0.7, -0.5)",test2,0,0,0,0,0,8,8,4,,,,,,83.05347829998937,l,correct,0.3852170999889495,,38,D,2024-05-16_08h07.51.496,gca_discrimination2,2022.2.4,144.00838705867812,
positions.xlsx,stimuli.xlsx,test.xlsx,stimuli/Test1.png,stimuli/Test2.png,stimuli/Social4.png,stimuli/Social3.png,stimuli/Nonsocial4.png,stimuli/Nonsocial3.png,stimuli/Social2.png,stimuli/Social1.png,stimuli/Nonsocial2.png,stimuli/Nonsocial1.png,"(0.7, 0.5)",test2,"(0.7, -0.5)",test1,0,0,0,0,0,9,9,5,,,,,,87.78246589998889,l,correct,0.3994665999925928,,38,D,2024-05-16_08h07.51.496,gca_discrimination2,2022.2.4,144.00838705867812,
positions.xlsx,stimuli.xlsx,test.xlsx,stimuli/Test1.png,stimuli/Test2.png,stimuli/Social4.png,stimuli/Social3.png,stimuli/Nonsocial4.png,stimuli/Nonsocial3.png,stimuli/Social2.png,stimuli/Social1.png,stimuli/Nonsocial2.png,stimuli/Nonsocial1.png,"(0.7, 0.5)",cs_neg_s,"(-0.7, 0.5)",cs_pos_s,0,0,0,0,,,,,0,0,0,20,,109.33015399999567,l,correct,1.2033842999953777,91.18507859999954,38,D,2024-05-16_08h07.51.496,gca_discrimination2,2022.2.4,144.00838705867812,
positions.xlsx,stimuli.xlsx,test.xlsx,stimuli/Test1.png,stimuli/Test2.png,stimuli/Social4.png,stimuli/Social3.png,stimuli/Nonsocial4.png,stimuli/Nonsocial3.png,stimuli/Social2.png,stimuli/Social1.png,stimuli/Nonsocial2.png,stimuli/Nonsocial1.png,"(-0.7, -0.5)",cs_neg_s_new,"(0.7, 0.5)",cs_pos_s_new,0,0,0,0,,,,,0,1,1,8,,113.29523929998686,ä,wrong,0.5026122999988729,,38,D,2024-05-16_08h07.51.496,gca_discrimination2,2022.2.4,144.00838705867812,
positions.xlsx,stimuli.xlsx,test.xlsx,stimuli/Test1.png,stimuli/Test2.png,stimuli/Social4.png,stimuli/Social3.png,stimuli/Nonsocial4.png,stimuli/Nonsocial3.png,stimuli/Social2.png,stimuli/Social1.png,stimuli/Nonsocial2.png,stimuli/Nonsocial1.png,"(0.7, -0.5)",cs_pos_ns_new,"(-0.7, 0.5)",cs_neg_ns_new,0,0,0,0,,,,,0,2,2,27,,115.871579499988,l,correct,0.7098884000006365,,38,D,2024-05-16_08h07.51.496,gca_discrimination2,2022.2.4,144.00838705867812,
positions.xlsx,stimuli.xlsx,test.xlsx,stimuli/Test1.png,stimuli/Test2.png,stimuli/Social4.png,stimuli/Social3.png,stimuli/Nonsocial4.png,stimuli/Nonsocial3.png,stimuli/Social2.png,stimuli/Social1.png,stimuli/Nonsocial2.png,stimuli/Nonsocial1.png,"(-0.7, -0.5)",cs_pos_s,"(0.7, -0.5)",cs_pos_s,0,0,0,0,,,,,0,3,3,56,,118.44786779998685,l,wrong,1.0699494000000414,,38,D,2024-05-16_08h07.51.496,gca_discrimination2,2022.2.4,144.00838705867812,
positions.xlsx,stimuli.xlsx,test.xlsx,stimuli/Test1.png,stimuli/Test2.png,stimuli/Social4.png,stimuli/Social3.png,stimuli/Nonsocial4.png,stimuli/Nonsocial3.png,stimuli/Social2.png,stimuli/Social1.png,stimuli/Nonsocial2.png,stimuli/Nonsocial1.png,"(-0.7, -0.5)",cs_neg_ns_new,"(0.7, -0.5)",cs_neg_ns,0,0,0,0,,,,,0,4,4,40,,121.83656379999593,l,correct,1.3290169999963837,,38,D,2024-05-16_08h07.51.496,gca_discrimination2,2022.2.4,144.00838705867812,
positions.xlsx,stimuli.xlsx,test.xlsx,stimuli/Test1.png,stimuli/Test2.png,stimuli/Social4.png,stimuli/Social3.png,stimuli/Nonsocial4.png,stimuli/Nonsocial3.png,stimuli/Social2.png,stimuli/Social1.png,stimuli/Nonsocial2.png,stimuli/Nonsocial1.png,"(0.7, 0.5)",cs_neg_s_new,"(-0.7, -0.5)",cs_pos_s_new,0,0,0,0,,,,,0,5,5,23,,125.31559819998802,l,correct,0.5704693000006955,,38,D,2024-05-16_08h07.51.496,gca_discrimination2,2022.2.4,144.00838705867812,
positions.xlsx,stimuli.xlsx,test.xlsx,stimuli/Test1.png,stimuli/Test2.png,stimuli/Social4.png,stimuli/Social3.png,stimuli/Nonsocial4.png,stimuli/Nonsocial3.png,stimuli/Social2.png,stimuli/Social1.png,stimuli/Nonsocial2.png,stimuli/Nonsocial1.png,"(-0.7, 0.5)",cs_neg_ns,"(-0.7, -0.5)",cs_pos_ns,0,0,0,0,,,,,0,6,6,34,,127.74609979998786,ä,wrong,0.4431839999888325,,38,D,2024-05-16_08h07.51.496,gca_discrimination2,2022.2.4,144.00838705867812,
positions.xlsx,stimuli.xlsx,test.xlsx,stimuli/Test1.png,stimuli/Test2.png,stimuli/Social4.png,stimuli/Social3.png,stimuli/Nonsocial4.png,stimuli/Nonsocial3.png,stimuli/Social2.png,stimuli/Social1.png,stimuli/Nonsocial2.png,stimuli/Nonsocial1.png,"(-0.7, 0.5)",cs_pos_ns_new,"(0.7, 0.5)",cs_pos_ns_new,0,0,0,0,,,,,0,7,7,93,,130.11404689999472,ä,correct,1.2348612999921897,,38,D,2024-05-16_08h07.51.496,gca_discrimination2,2022.2.4,144.00838705867812,
positions.xlsx,stimuli.xlsx,test.xlsx,stimuli/Test1.png,stimuli/Test2.png,stimuli/Social4.png,stimuli/Social3.png,stimuli/Nonsocial4.png,stimuli/Nonsocial3.png,stimuli/Social2.png,stimuli/Social1.png,stimuli/Nonsocial2.png,stimuli/Nonsocial1.png,"(0.7, 0.5)",cs_neg_s_new,"(-0.7, -0.5)",cs_neg_s_new,0,0,0,0,,,,,0,8,8,50,,134.1347023999988,ä,correct,0.8862506000004942,,38,D,2024-05-16_08h07.51.496,gca_discrimination2,2022.2.4,144.00838705867812,
positions.xlsx,stimuli.xlsx,test.xlsx,stimuli/Test1.png,stimuli/Test2.png,stimuli/Social4.png,stimuli/Social3.png,stimuli/Nonsocial4.png,stimuli/Nonsocial3.png,stimuli/Social2.png,stimuli/Social1.png,stimuli/Nonsocial2.png,stimuli/Nonsocial1.png,"(-0.7, -0.5)",cs_pos_s_new,"(0.7, 0.5)",cs_neg_s_new,0,0,0,0,,,,,0,9,9,15,,137.74566059999052,l,correct,0.7324920999963069,,38,D,2024-05-16_08h07.51.496,gca_discrimination2,2022.2.4,144.00838705867812,
positions.xlsx,stimuli.xlsx,test.xlsx,stimuli/Test1.png,stimuli/Test2.png,stimuli/Social4.png,stimuli/Social3.png,stimuli/Nonsocial4.png,stimuli/Nonsocial3.png,stimuli/Social2.png,stimuli/Social1.png,stimuli/Nonsocial2.png,stimuli/Nonsocial1.png,"(0.7, 0.5)",cs_pos_s_new,"(-0.7, -0.5)",cs_pos_s_new,0,0,0,0,,,,,0,10,10,49,,141.0024679999915,ä,correct,0.44243339999229647,,38,D,2024-05-16_08h07.51.496,gca_discrimination2,2022.2.4,144.00838705867812,
positions.xlsx,stimuli.xlsx,test.xlsx,stimuli/Test1.png,stimuli/Test2.png,stimuli/Social4.png,stimuli/Social3.png,stimuli/Nonsocial4.png,stimuli/Nonsocial3.png,stimuli/Social2.png,stimuli/Social1.png,stimuli/Nonsocial2.png,stimuli/Nonsocial1.png,"(-0.7, 0.5)",cs_pos_ns_new,"(0.7, 0.5)",cs_pos_ns,0,0,0,0,,,,,0,11,11,44,,143.7732154999976,ä,wrong,1.2330884999973932,,38,D,2024-05-16_08h07.51.496,gca_discrimination2,2022.2.4,144.00838705867812,
positions.xlsx,stimuli.xlsx,test.xlsx,stimuli/Test1.png,stimuli/Test2.png,stimuli/Social4.png,stimuli/Social3.png,stimuli/Nonsocial4.png,stimuli/Nonsocial3.png,stimuli/Social2.png,stimuli/Social1.png,stimuli/Nonsocial2.png,stimuli/Nonsocial1.png,"(-0.7, 0.5)",cs_pos_ns_new,"(0.7, -0.5)",cs_pos_ns,0,0,0,0,,,,,0,12,12,26,,147.50218799999857,ä,wrong,1.0551293000025908,,38,D,2024-05-16_08h07.51.496,gca_discrimination2,2022.2.4,144.00838705867812,
positions.xlsx,stimuli.xlsx,test.xlsx,stimuli/Test1.png,stimuli/Test2.png,stimuli/Social4.png,stimuli/Social3.png,stimuli/Nonsocial4.png,stimuli/Nonsocial3.png,stimuli/Social2.png,stimuli/Social1.png,stimuli/Nonsocial2.png,stimuli/Nonsocial1.png,"(-0.7, -0.5)",cs_neg_ns_new,"(0.7, 0.5)",cs_neg_ns_new,0,0,0,0,,,,,0,13,13,80,,151.36318869999377,ä,correct,0.3860095999989426,,38,D,2024-05-16_08h07.51.496,gca_discrimination2,2022.2.4,144.00838705867812,
positions.xlsx,stimuli.xlsx,test.xlsx,stimuli/Test1.png,stimuli/Test2.png,stimuli/Social4.png,stimuli/Social3.png,stimuli/Nonsocial4.png,stimuli/Nonsocial3.png,stimuli/Social2.png,stimuli/Social1.png,stimuli/Nonsocial2.png,stimuli/Nonsocial1.png,"(0.7, 0.5)",cs_neg_s_new,"(-0.7, 0.5)",cs_neg_s_new,0,0,0,0,,,,,0,14,14,65,,153.6755603999918,l,wrong,1.1783730000024661,,38,D,2024-05-16_08h07.51.496,gca_discrimination2,2022.2.4,144.00838705867812,
positions.xlsx,stimuli.xlsx,test.xlsx,stimuli/Test1.png,stimuli/Test2.png,stimuli/Social4.png,stimuli/Social3.png,stimuli/Nonsocial4.png,stimuli/Nonsocial3.png,stimuli/Social2.png,stimuli/Social1.png,stimuli/Nonsocial2.png,stimuli/Nonsocial1.png,"(0.7, 0.5)",cs_pos_s_new,"(-0.7, 0.5)",cs_pos_s_new,0,0,0,0,,,,,0,15,15,62,,157.50876079998852,ä,correct,0.5774146000039764,,38,D,2024-05-16_08h07.51.496,gca_discrimination2,2022.2.4,144.00838705867812,
positions.xlsx,stimuli.xlsx,test.xlsx,stimuli/Test1.png,stimuli/Test2.png,stimuli/Social4.png,stimuli/Social3.png,stimuli/Nonsocial4.png,stimuli/Nonsocial3.png,stimuli/Social2.png,stimuli/Social1.png,stimuli/Nonsocial2.png,stimuli/Nonsocial1.png,"(0.7, -0.5)",cs_pos_s_new,"(-0.7, 0.5)",cs_pos_s,0,0,0,0,,,,,0,16,16,17,,160.39749009998923,ä,wrong,0.8241896999970777,,38,D,2024-05-16_08h07.51.496,gca_discrimination2,2022.2.4,144.00838705867812,
positions.xlsx,stimuli.xlsx,test.xlsx,stimuli/Test1.png,stimuli/Test2.png,stimuli/Social4.png,stimuli/Social3.png,stimuli/Nonsocial4.png,stimuli/Nonsocial3.png,stimuli/Social2.png,stimuli/Social1.png,stimuli/Nonsocial2.png,stimuli/Nonsocial1.png,"(0.7, -0.5)",cs_pos_ns,"(0.7, 0.5)",cs_neg_ns,0,0,0,0,,,,,0,17,17,33,,163.51542969999718,l,correct,0.778816399993957,,38,D,2024-05-16_08h07.51.496,gca_discrimination2,2022.2.4,144.00838705867812,
positions.xlsx,stimuli.xlsx,test.xlsx,stimuli/Test1.png,stimuli/Test2.png,stimuli/Social4.png,stimuli/Social3.png,stimuli/Nonsocial4.png,stimuli/Nonsocial3.png,stimuli/Social2.png,stimuli/Social1.png,stimuli/Nonsocial2.png,stimuli/Nonsocial1.png,"(-0.7, 0.5)",cs_pos_s_new,"(-0.7, -0.5)",cs_pos_s_new,0,0,0,0,,,,,0,18,18,52,,166.5222528999875,ä,correct,0.4508236000110628,,38,D,2024-05-16_08h07.51.496,gca_discrimination2,2022.2.4,144.00838705867812,
positions.xlsx,stimuli.xlsx,test.xlsx,stimuli/Test1.png,stimuli/Test2.png,stimuli/Social4.png,stimuli/Social3.png,stimuli/Nonsocial4.png,stimuli/Nonsocial3.png,stimuli/Social2.png,stimuli/Social1.png,stimuli/Nonsocial2.png,stimuli/Nonsocial1.png,"(0.7, -0.5)",cs_neg_ns_new,"(-0.7, 0.5)",cs_neg_ns_new,0,0,0,0,,,,,0,19,19,89,,169.00132369999483,ä,correct,0.6360425999882864,,38,D,2024-05-16_08h07.51.496,gca_discrimination2,2022.2.4,144.00838705867812,
positions.xlsx,stimuli.xlsx,test.xlsx,stimuli/Test1.png,stimuli/Test2.png,stimuli/Social4.png,stimuli/Social3.png,stimuli/Nonsocial4.png,stimuli/Nonsocial3.png,stimuli/Social2.png,stimuli/Social1.png,stimuli/Nonsocial2.png,stimuli/Nonsocial1.png,"(-0.7, 0.5)",cs_neg_s,"(0.7, 0.5)",cs_neg_s_new,0,0,0,0,,,,,0,20,20,6,,171.56369679998897,l,correct,0.4012306999939028,,38,D,2024-05-16_08h07.51.496,gca_discrimination2,2022.2.4,144.00838705867812,
positions.xlsx,stimuli.xlsx,test.xlsx,stimuli/Test1.png,stimuli/Test2.png,stimuli/Social4.png,stimuli/Social3.png,stimuli/Nonsocial4.png,stimuli/Nonsocial3.png,stimuli/Social2.png,stimuli/Social1.png,stimuli/Nonsocial2.png,stimuli/Nonsocial1.png,"(-0.7, -0.5)",cs_neg_ns_new,"(-0.7, 0.5)",cs_pos_ns_new,0,0,0,0,,,,,0,21,21,43,,174.42470719999983,l,correct,0.5243364999914775,,38,D,2024-05-16_08h07.51.496,gca_discrimination2,2022.2.4,144.00838705867812,
positions.xlsx,stimuli.xlsx,test.xlsx,stimuli/Test1.png,stimuli/Test2.png,stimuli/Social4.png,stimuli/Social3.png,stimuli/Nonsocial4.png,stimuli/Nonsocial3.png,stimuli/Social2.png,stimuli/Social1.png,stimuli/Nonsocial2.png,stimuli/Nonsocial1.png,"(0.7, -0.5)",cs_neg_ns,"(-0.7, 0.5)",cs_pos_ns,0,0,0,0,,,,,0,22,22,24,,177.54265139999916,ä,wrong,0.6946041000046534,,38,D,2024-05-16_08h07.51.496,gca_discrimination2,2022.2.4,144.00838705867812,
positions.xlsx,stimuli.xlsx,test.xlsx,stimuli/Test1.png,stimuli/Test2.png,stimuli/Social4.png,stimuli/Social3.png,stimuli/Nonsocial4.png,stimuli/Nonsocial3.png,stimuli/Social2.png,stimuli/Social1.png,stimuli/Nonsocial2.png,stimuli/Nonsocial1.png,"(-0.7, -0.5)",cs_pos_s,"(-0.7, 0.5)",cs_pos_s_new,0,0,0,0,,,,,0,23,23,1,,180.32029459999467,l,correct,0.8691772000020137,,38,D,2024-05-16_08h07.51.496,gca_discrimination2,2022.2.4,144.00838705867812,
positions.xlsx,stimuli.xlsx,test.xlsx,stimuli/Test1.png,stimuli/Test2.png,stimuli/Social4.png,stimuli/Social3.png,stimuli/Nonsocial4.png,stimuli/Nonsocial3.png,stimuli/Social2.png,stimuli/Social1.png,stimuli/Nonsocial2.png,stimuli/Nonsocial1.png,"(-0.7, -0.5)",cs_neg_ns,"(0.7, -0.5)",cs_neg_ns_new,0,0,0,0,,,,,0,24,24,29,,183.17436710000038,l,correct,1.1513825999863911,,38,D,2024-05-16_08h07.51.496,gca_discrimination2,2022.2.4,144.00838705867812,
positions.xlsx,stimuli.xlsx,test.xlsx,stimuli/Test1.png,stimuli/Test2.png,stimuli/Social4.png,stimuli/Social3.png,stimuli/Nonsocial4.png,stimuli/Nonsocial3.png,stimuli/Social2.png,stimuli/Social1.png,stimuli/Nonsocial2.png,stimuli/Nonsocial1.png,"(0.7, -0.5)",cs_neg_ns_new,"(-0.7, 0.5)",cs_pos_ns_new,0,0,0,0,,,,,0,25,25,31,,186.29919089999748,l,correct,0.46631869999691844,,38,D,2024-05-16_08h07.51.496,gca_discrimination2,2022.2.4,144.00838705867812,
positions.xlsx,stimuli.xlsx,test.xlsx,stimuli/Test1.png,stimuli/Test2.png,stimuli/Social4.png,stimuli/Social3.png,stimuli/Nonsocial4.png,stimuli/Nonsocial3.png,stimuli/Social2.png,stimuli/Social1.png,stimuli/Nonsocial2.png,stimuli/Nonsocial1.png,"(-0.7, 0.5)",cs_pos_s_new,"(0.7, -0.5)",cs_pos_s_new,0,0,0,0,,,,,0,26,26,58,,189.45182389998809,ä,correct,0.5773607000010088,,38,D,2024-05-16_08h07.51.496,gca_discrimination2,2022.2.4,144.00838705867812,
positions.xlsx,stimuli.xlsx,test.xlsx,stimuli/Test1.png,stimuli/Test2.png,stimuli/Social4.png,stimuli/Social3.png,stimuli/Nonsocial4.png,stimuli/Nonsocial3.png,stimuli/Social2.png,stimuli/Social1.png,stimuli/Nonsocial2.png,stimuli/Nonsocial1.png,"(0.7, 0.5)",cs_pos_s_new,"(-0.7, 0.5)",cs_neg_s_new,0,0,0,0,,,,,0,27,27,5,,191.9517835999868,l,correct,0.4786380999867106,,38,D,2024-05-16_08h07.51.496,gca_discrimination2,2022.2.4,144.00838705867812,
positions.xlsx,stimuli.xlsx,test.xlsx,stimuli/Test1.png,stimuli/Test2.png,stimuli/Social4.png,stimuli/Social3.png,stimuli/Nonsocial4.png,stimuli/Nonsocial3.png,stimuli/Social2.png,stimuli/Social1.png,stimuli/Nonsocial2.png,stimuli/Nonsocial1.png,"(0.7, 0.5)",cs_neg_ns,"(-0.7, -0.5)",cs_pos_ns_new,0,0,0,0,,,,,0,28,28,42,,194.59055709998938,l,correct,0.3991905000002589,,38,D,2024-05-16_08h07.51.496,gca_discrimination2,2022.2.4,144.00838705867812,
positions.xlsx,stimuli.xlsx,test.xlsx,stimuli/Test1.png,stimuli/Test2.png,stimuli/Social4.png,stimuli/Social3.png,stimuli/Nonsocial4.png,stimuli/Nonsocial3.png,stimuli/Social2.png,stimuli/Social1.png,stimuli/Nonsocial2.png,stimuli/Nonsocial1.png,"(-0.7, -0.5)",cs_neg_s_new,"(0.7, 0.5)",cs_pos_s,0,0,0,0,,,,,0,29,29,0,,197.43069359999208,ä,wrong,0.7505010999884689,,38,D,2024-05-16_08h07.51.496,gca_discrimination2,2022.2.4,144.00838705867812,
positions.xlsx,stimuli.xlsx,test.xlsx,stimuli/Test1.png,stimuli/Test2.png,stimuli/Social4.png,stimuli/Social3.png,stimuli/Nonsocial4.png,stimuli/Nonsocial3.png,stimuli/Social2.png,stimuli/Social1.png,stimuli/Nonsocial2.png,stimuli/Nonsocial1.png,"(-0.7, -0.5)",cs_pos_s_new,"(0.7, -0.5)",cs_pos_s_new,0,0,0,0,,,,,0,30,30,67,,200.8263764000003,ä,correct,0.4515065999876242,,38,D,2024-05-16_08h07.51.496,gca_discrimination2,2022.2.4,144.00838705867812,
positions.xlsx,stimuli.xlsx,test.xlsx,stimuli/Test1.png,stimuli/Test2.png,stimuli/Social4.png,stimuli/Social3.png,stimuli/Nonsocial4.png,stimuli/Nonsocial3.png,stimuli/Social2.png,stimuli/Social1.png,stimuli/Nonsocial2.png,stimuli/Nonsocial1.png,"(0.7, -0.5)",cs_neg_ns_new,"(-0.7, -0.5)",cs_neg_ns_new,0,0,0,0,,,,,0,31,31,92,,203.8262526999897,ä,correct,1.1147228000045288,,38,D,2024-05-16_08h07.51.496,gca_discrimination2,2022.2.4,144.00838705867812,
positions.xlsx,stimuli.xlsx,test.xlsx,stimuli/Test1.png,stimuli/Test2.png,stimuli/Social4.png,stimuli/Social3.png,stimuli/Nonsocial4.png,stimuli/Nonsocial3.png,stimuli/Social2.png,stimuli/Social1.png,stimuli/Nonsocial2.png,stimuli/Nonsocial1.png,"(0.7, -0.5)",cs_neg_s_new,"(-0.7, 0.5)",cs_pos_s_new,0,0,0,0,,,,,0,32,32,22,,206.81227809999837,l,correct,0.9373733999964315,,38,D,2024-05-16_08h07.51.496,gca_discrimination2,2022.2.4,144.00838705867812,
positions.xlsx,stimuli.xlsx,test.xlsx,stimuli/Test1.png,stimuli/Test2.png,stimuli/Social4.png,stimuli/Social3.png,stimuli/Nonsocial4.png,stimuli/Nonsocial3.png,stimuli/Social2.png,stimuli/Social1.png,stimuli/Nonsocial2.png,stimuli/Nonsocial1.png,"(0.7, 0.5)",cs_neg_ns,"(-0.7, -0.5)",cs_neg_ns,0,0,0,0,,,,,0,33,33,77,,210.2774178999971,ä,correct,0.9684086000052048,,38,D,2024-05-16_08h07.51.496,gca_discrimination2,2022.2.4,144.00838705867812,
positions.xlsx,stimuli.xlsx,test.xlsx,stimuli/Test1.png,stimuli/Test2.png,stimuli/Social4.png,stimuli/Social3.png,stimuli/Nonsocial4.png,stimuli/Nonsocial3.png,stimuli/Social2.png,stimuli/Social1.png,stimuli/Nonsocial2.png,stimuli/Nonsocial1.png,"(0.7, -0.5)",cs_neg_ns,"(-0.7, 0.5)",cs_neg_ns_new,0,0,0,0,,,,,0,34,34,25,,213.45782079998753,l,correct,0.5888542000029702,,38,D,2024-05-16_08h07.51.496,gca_discrimination2,2022.2.4,144.00838705867812,
positions.xlsx,stimuli.xlsx,test.xlsx,stimuli/Test1.png,stimuli/Test2.png,stimuli/Social4.png,stimuli/Social3.png,stimuli/Nonsocial4.png,stimuli/Nonsocial3.png,stimuli/Social2.png,stimuli/Social1.png,stimuli/Nonsocial2.png,stimuli/Nonsocial1.png,"(-0.7, -0.5)",cs_neg_s_new,"(-0.7, 0.5)",cs_pos_s,0,0,0,0,,,,,0,35,35,14,,216.16601359999913,l,correct,0.8958132999978261,,38,D,2024-05-16_08h07.51.496,gca_discrimination2,2022.2.4,144.00838705867812,
positions.xlsx,stimuli.xlsx,test.xlsx,stimuli/Test1.png,stimuli/Test2.png,stimuli/Social4.png,stimuli/Social3.png,stimuli/Nonsocial4.png,stimuli/Nonsocial3.png,stimuli/Social2.png,stimuli/Social1.png,stimuli/Nonsocial2.png,stimuli/Nonsocial1.png,"(0.7, -0.5)",cs_neg_s_new,"(0.7, 0.5)",cs_neg_s_new,0,0,0,0,,,,,0,36,36,63,,219.8672474999912,ä,correct,0.5857468000031076,,38,D,2024-05-16_08h07.51.496,gca_discrimination2,2022.2.4,144.00838705867812,
positions.xlsx,stimuli.xlsx,test.xlsx,stimuli/Test1.png,stimuli/Test2.png,stimuli/Social4.png,stimuli/Social3.png,stimuli/Nonsocial4.png,stimuli/Nonsocial3.png,stimuli/Social2.png,stimuli/Social1.png,stimuli/Nonsocial2.png,stimuli/Nonsocial1.png,"(-0.7, -0.5)",cs_pos_s,"(0.7, 0.5)",cs_pos_s,0,0,0,0,,,,,0,37,37,55,,223.18660129999625,ä,correct,0.5945267000060994,,38,D,2024-05-16_08h07.51.496,gca_discrimination2,2022.2.4,144.00838705867812,
positions.xlsx,stimuli.xlsx,test.xlsx,stimuli/Test1.png,stimuli/Test2.png,stimuli/Social4.png,stimuli/Social3.png,stimuli/Nonsocial4.png,stimuli/Nonsocial3.png,stimuli/Social2.png,stimuli/Social1.png,stimuli/Nonsocial2.png,stimuli/Nonsocial1.png,"(0.7, -0.5)",cs_neg_s_new,"(-0.7, 0.5)",cs_neg_s_new,0,0,0,0,,,,,0,38,38,70,,225.93647279999277,ä,correct,0.5013524000096368,,38,D,2024-05-16_08h07.51.496,gca_discrimination2,2022.2.4,144.00838705867812,
positions.xlsx,stimuli.xlsx,test.xlsx,stimuli/Test1.png,stimuli/Test2.png,stimuli/Social4.png,stimuli/Social3.png,stimuli/Nonsocial4.png,stimuli/Nonsocial3.png,stimuli/Social2.png,stimuli/Social1.png,stimuli/Nonsocial2.png,stimuli/Nonsocial1.png,"(-0.7, -0.5)",cs_pos_ns_new,"(0.7, 0.5)",cs_pos_ns_new,0,0,0,0,,,,,0,39,39,84,,229.22108689999732,ä,correct,0.7198362999915844,,38,D,2024-05-16_08h07.51.496,gca_discrimination2,2022.2.4,144.00838705867812,
positions.xlsx,stimuli.xlsx,test.xlsx,stimuli/Test1.png,stimuli/Test2.png,stimuli/Social4.png,stimuli/Social3.png,stimuli/Nonsocial4.png,stimuli/Nonsocial3.png,stimuli/Social2.png,stimuli/Social1.png,stimuli/Nonsocial2.png,stimuli/Nonsocial1.png,"(-0.7, 0.5)",cs_neg_s,"(0.7, -0.5)",cs_neg_s,0,0,0,0,,,,,0,40,40,53,,232.7069877999893,ä,correct,0.4342493000003742,,38,D,2024-05-16_08h07.51.496,gca_discrimination2,2022.2.4,144.00838705867812,
positions.xlsx,stimuli.xlsx,test.xlsx,stimuli/Test1.png,stimuli/Test2.png,stimuli/Social4.png,stimuli/Social3.png,stimuli/Nonsocial4.png,stimuli/Nonsocial3.png,stimuli/Social2.png,stimuli/Social1.png,stimuli/Nonsocial2.png,stimuli/Nonsocial1.png,"(0.7, -0.5)",cs_neg_s,"(-0.7, -0.5)",cs_neg_s,0,0,0,0,,,,,0,41,41,51,,235.1652430999966,ä,correct,0.3853562000003876,,38,D,2024-05-16_08h07.51.496,gca_discrimination2,2022.2.4,144.00838705867812,
positions.xlsx,stimuli.xlsx,test.xlsx,stimuli/Test1.png,stimuli/Test2.png,stimuli/Social4.png,stimuli/Social3.png,stimuli/Nonsocial4.png,stimuli/Nonsocial3.png,stimuli/Social2.png,stimuli/Social1.png,stimuli/Nonsocial2.png,stimuli/Nonsocial1.png,"(-0.7, 0.5)",cs_pos_ns,"(-0.7, -0.5)",cs_pos_ns,0,0,0,0,,,,,0,42,42,76,,237.42904099999578,ä,correct,0.4246621999918716,,38,D,2024-05-16_08h07.51.496,gca_discrimination2,2022.2.4,144.00838705867812,
positions.xlsx,stimuli.xlsx,test.xlsx,stimuli/Test1.png,stimuli/Test2.png,stimuli/Social4.png,stimuli/Social3.png,stimuli/Nonsocial4.png,stimuli/Nonsocial3.png,stimuli/Social2.png,stimuli/Social1.png,stimuli/Nonsocial2.png,stimuli/Nonsocial1.png,"(0.7, -0.5)",cs_neg_ns,"(-0.7, -0.5)",cs_neg_ns,0,0,0,0,,,,,0,43,43,87,,240.03309679999074,ä,correct,0.6209663000045111,,38,D,2024-05-16_08h07.51.496,gca_discrimination2,2022.2.4,144.00838705867812,
positions.xlsx,stimuli.xlsx,test.xlsx,stimuli/Test1.png,stimuli/Test2.png,stimuli/Social4.png,stimuli/Social3.png,stimuli/Nonsocial4.png,stimuli/Nonsocial3.png,stimuli/Social2.png,stimuli/Social1.png,stimuli/Nonsocial2.png,stimuli/Nonsocial1.png,"(-0.7, -0.5)",cs_neg_s,"(-0.7, 0.5)",cs_neg_s,0,0,0,0,,,,,0,44,44,57,,242.87327209999785,ä,correct,0.3798339999921154,,38,D,2024-05-16_08h07.51.496,gca_discrimination2,2022.2.4,144.00838705867812,
positions.xlsx,stimuli.xlsx,test.xlsx,stimuli/Test1.png,stimuli/Test2.png,stimuli/Social4.png,stimuli/Social3.png,stimuli/Nonsocial4.png,stimuli/Nonsocial3.png,stimuli/Social2.png,stimuli/Social1.png,stimuli/Nonsocial2.png,stimuli/Nonsocial1.png,"(0.7, -0.5)",cs_neg_ns_new,"(0.7, 0.5)",cs_neg_ns_new,0,0,0,0,,,,,0,45,45,91,,245.85232099999848,ä,correct,0.49728999999933876,,38,D,2024-05-16_08h07.51.496,gca_discrimination2,2022.2.4,144.00838705867812,
positions.xlsx,stimuli.xlsx,test.xlsx,stimuli/Test1.png,stimuli/Test2.png,stimuli/Social4.png,stimuli/Social3.png,stimuli/Nonsocial4.png,stimuli/Nonsocial3.png,stimuli/Social2.png,stimuli/Social1.png,stimuli/Nonsocial2.png,stimuli/Nonsocial1.png,"(-0.7, 0.5)",cs_neg_s,"(0.7, -0.5)",cs_pos_s_new,0,0,0,0,,,,,0,46,46,11,,248.6230346999946,l,correct,0.6467563000041991,,38,D,2024-05-16_08h07.51.496,gca_discrimination2,2022.2.4,144.00838705867812,
positions.xlsx,stimuli.xlsx,test.xlsx,stimuli/Test1.png,stimuli/Test2.png,stimuli/Social4.png,stimuli/Social3.png,stimuli/Nonsocial4.png,stimuli/Nonsocial3.png,stimuli/Social2.png,stimuli/Social1.png,stimuli/Nonsocial2.png,stimuli/Nonsocial1.png,"(-0.7, -0.5)",cs_pos_s_new,"(-0.7, 0.5)",cs_neg_s_new,0,0,0,0,,,,,0,47,47,13,,251.4007297999924,l,correct,0.42077089998929296,,38,D,2024-05-16_08h07.51.496,gca_discrimination2,2022.2.4,144.00838705867812,
positions.xlsx,stimuli.xlsx,test.xlsx,stimuli/Test1.png,stimuli/Test2.png,stimuli/Social4.png,stimuli/Social3.png,stimuli/Nonsocial4.png,stimuli/Nonsocial3.png,stimuli/Social2.png,stimuli/Social1.png,stimuli/Nonsocial2.png,stimuli/Nonsocial1.png,"(-0.7, -0.5)",cs_pos_ns,"(0.7, -0.5)",cs_pos_ns,0,0,0,0,,,,,0,48,48,72,,254.03949309999007,ä,correct,0.6058585999999195,,38,D,2024-05-16_08h07.51.496,gca_discrimination2,2022.2.4,144.00838705867812,
positions.xlsx,stimuli.xlsx,test.xlsx,stimuli/Test1.png,stimuli/Test2.png,stimuli/Social4.png,stimuli/Social3.png,stimuli/Nonsocial4.png,stimuli/Nonsocial3.png,stimuli/Social2.png,stimuli/Social1.png,stimuli/Nonsocial2.png,stimuli/Nonsocial1.png,"(-0.7, 0.5)",cs_pos_s,"(0.7, 0.5)",cs_pos_s,0,0,0,0,,,,,0,49,49,60,,257.4420960999996,ä,correct,0.6993120999977691,,38,D,2024-05-16_08h07.51.496,gca_discrimination2,2022.2.4,144.00838705867812,
positions.xlsx,stimuli.xlsx,test.xlsx,stimuli/Test1.png,stimuli/Test2.png,stimuli/Social4.png,stimuli/Social3.png,stimuli/Nonsocial4.png,stimuli/Nonsocial3.png,stimuli/Social2.png,stimuli/Social1.png,stimuli/Nonsocial2.png,stimuli/Nonsocial1.png,"(0.7, 0.5)",cs_neg_s_new,"(0.7, -0.5)",cs_pos_s,0,0,0,0,,,,,0,50,50,3,,260.83783229999244,ä,wrong,1.0629906000103801,,38,D,2024-05-16_08h07.51.496,gca_discrimination2,2022.2.4,144.00838705867812,
positions.xlsx,stimuli.xlsx,test.xlsx,stimuli/Test1.png,stimuli/Test2.png,stimuli/Social4.png,stimuli/Social3.png,stimuli/Nonsocial4.png,stimuli/Nonsocial3.png,stimuli/Social2.png,stimuli/Social1.png,stimuli/Nonsocial2.png,stimuli/Nonsocial1.png,"(0.7, 0.5)",cs_pos_ns_new,"(-0.7, -0.5)",cs_pos_ns_new,0,0,0,0,,,,,0,51,51,74,,264.3862980999984,ä,correct,0.45846559999336023,,38,D,2024-05-16_08h07.51.496,gca_discrimination2,2022.2.4,144.00838705867812,
positions.xlsx,stimuli.xlsx,test.xlsx,stimuli/Test1.png,stimuli/Test2.png,stimuli/Social4.png,stimuli/Social3.png,stimuli/Nonsocial4.png,stimuli/Nonsocial3.png,stimuli/Social2.png,stimuli/Social1.png,stimuli/Nonsocial2.png,stimuli/Nonsocial1.png,"(0.7, 0.5)",cs_pos_ns,"(-0.7, 0.5)",cs_neg_ns_new,0,0,0,0,,,,,0,52,52,47,,266.70561079999607,l,correct,0.4918386999925133,,38,D,2024-05-16_08h07.51.496,gca_discrimination2,2022.2.4,144.00838705867812,
positions.xlsx,stimuli.xlsx,test.xlsx,stimuli/Test1.png,stimuli/Test2.png,stimuli/Social4.png,stimuli/Social3.png,stimuli/Nonsocial4.png,stimuli/Nonsocial3.png,stimuli/Social2.png,stimuli/Social1.png,stimuli/Nonsocial2.png,stimuli/Nonsocial1.png,"(0.7, -0.5)",cs_pos_s,"(0.7, 0.5)",cs_pos_s,0,0,0,0,,,,,0,53,53,71,,269.1291860999918,ä,correct,0.6612941000057617,,38,D,2024-05-16_08h07.51.496,gca_discrimination2,2022.2.4,144.00838705867812,
positions.xlsx,stimuli.xlsx,test.xlsx,stimuli/Test1.png,stimuli/Test2.png,stimuli/Social4.png,stimuli/Social3.png,stimuli/Nonsocial4.png,stimuli/Nonsocial3.png,stimuli/Social2.png,stimuli/Social1.png,stimuli/Nonsocial2.png,stimuli/Nonsocial1.png,"(-0.7, -0.5)",cs_pos_ns,"(-0.7, 0.5)",cs_pos_ns_new,0,0,0,0,,,,,0,54,54,32,,272.02483609999763,l,correct,1.0778028999920934,,38,D,2024-05-16_08h07.51.496,gca_discrimination2,2022.2.4,144.00838705867812,
positions.xlsx,stimuli.xlsx,test.xlsx,stimuli/Test1.png,stimuli/Test2.png,stimuli/Social4.png,stimuli/Social3.png,stimuli/Nonsocial4.png,stimuli/Nonsocial3.png,stimuli/Social2.png,stimuli/Social1.png,stimuli/Nonsocial2.png,stimuli/Nonsocial1.png,"(-0.7, -0.5)",cs_neg_s_new,"(-0.7, 0.5)",cs_neg_s_new,0,0,0,0,,,,,0,55,55,66,,275.2955602000002,None,no answer,,,38,D,2024-05-16_08h07.51.496,gca_discrimination2,2022.2.4,144.00838705867812,
positions.xlsx,stimuli.xlsx,test.xlsx,stimuli/Test1.png,stimuli/Test2.png,stimuli/Social4.png,stimuli/Social3.png,stimuli/Nonsocial4.png,stimuli/Nonsocial3.png,stimuli/Social2.png,stimuli/Social1.png,stimuli/Nonsocial2.png,stimuli/Nonsocial1.png,"(0.7, -0.5)",cs_neg_ns,"(-0.7, 0.5)",cs_neg_ns,0,0,0,0,,,,,0,56,56,86,,279.1634445999953,ä,correct,0.4580643999943277,,38,D,2024-05-16_08h07.51.496,gca_discrimination2,2022.2.4,144.00838705867812,
positions.xlsx,stimuli.xlsx,test.xlsx,stimuli/Test1.png,stimuli/Test2.png,stimuli/Social4.png,stimuli/Social3.png,stimuli/Nonsocial4.png,stimuli/Nonsocial3.png,stimuli/Social2.png,stimuli/Social1.png,stimuli/Nonsocial2.png,stimuli/Nonsocial1.png,"(-0.7, 0.5)",cs_neg_s_new,"(0.7, 0.5)",cs_neg_s_new,0,0,0,0,,,,,0,57,57,69,,281.6703034999955,ä,correct,0.6789490000082878,,38,D,2024-05-16_08h07.51.496,gca_discrimination2,2022.2.4,144.00838705867812,
positions.xlsx,stimuli.xlsx,test.xlsx,stimuli/Test1.png,stimuli/Test2.png,stimuli/Social4.png,stimuli/Social3.png,stimuli/Nonsocial4.png,stimuli/Nonsocial3.png,stimuli/Social2.png,stimuli/Social1.png,stimuli/Nonsocial2.png,stimuli/Nonsocial1.png,"(0.7, -0.5)",cs_pos_s,"(0.7, 0.5)",cs_neg_s,0,0,0,0,,,,,0,58,58,12,,284.7326675999939,l,correct,0.5760082000051625,,38,D,2024-05-16_08h07.51.496,gca_discrimination2,2022.2.4,144.00838705867812,
positions.xlsx,stimuli.xlsx,test.xlsx,stimuli/Test1.png,stimuli/Test2.png,stimuli/Social4.png,stimuli/Social3.png,stimuli/Nonsocial4.png,stimuli/Nonsocial3.png,stimuli/Social2.png,stimuli/Social1.png,stimuli/Nonsocial2.png,stimuli/Nonsocial1.png,"(-0.7, -0.5)",cs_pos_ns,"(-0.7, 0.5)",cs_neg_ns,0,0,0,0,,,,,0,59,59,39,,287.52420859999256,l,correct,0.8655605000094511,,38,D,2024-05-16_08h07.51.496,gca_discrimination2,2022.2.4,144.00838705867812,
positions.xlsx,stimuli.xlsx,test.xlsx,stimuli/Test1.png,stimuli/Test2.png,stimuli/Social4.png,stimuli/Social3.png,stimuli/Nonsocial4.png,stimuli/Nonsocial3.png,stimuli/Social2.png,stimuli/Social1.png,stimuli/Nonsocial2.png,stimuli/Nonsocial1.png,"(0.7, 0.5)",cs_pos_ns,"(-0.7, -0.5)",cs_pos_ns_new,0,0,0,0,,,,,0,60,60,35,,290.5241118999984,l,correct,0.4965607999911299,,38,D,2024-05-16_08h07.51.496,gca_discrimination2,2022.2.4,144.00838705867812,
positions.xlsx,stimuli.xlsx,test.xlsx,stimuli/Test1.png,stimuli/Test2.png,stimuli/Social4.png,stimuli/Social3.png,stimuli/Nonsocial4.png,stimuli/Nonsocial3.png,stimuli/Social2.png,stimuli/Social1.png,stimuli/Nonsocial2.png,stimuli/Nonsocial1.png,"(-0.7, -0.5)",cs_neg_ns,"(-0.7, 0.5)",cs_neg_ns_new,0,0,0,0,,,,,0,61,61,30,,292.9128811999981,l,correct,0.9885676999983843,,38,D,2024-05-16_08h07.51.496,gca_discrimination2,2022.2.4,144.00838705867812,
positions.xlsx,stimuli.xlsx,test.xlsx,stimuli/Test1.png,stimuli/Test2.png,stimuli/Social4.png,stimuli/Social3.png,stimuli/Nonsocial4.png,stimuli/Nonsocial3.png,stimuli/Social2.png,stimuli/Social1.png,stimuli/Nonsocial2.png,stimuli/Nonsocial1.png,"(-0.7, 0.5)",cs_neg_ns,"(-0.7, -0.5)",cs_neg_ns,0,0,0,0,,,,,0,62,62,73,,296.1557928999973,ä,correct,0.39352389999839943,,38,D,2024-05-16_08h07.51.496,gca_discrimination2,2022.2.4,144.00838705867812,
positions.xlsx,stimuli.xlsx,test.xlsx,stimuli/Test1.png,stimuli/Test2.png,stimuli/Social4.png,stimuli/Social3.png,stimuli/Nonsocial4.png,stimuli/Nonsocial3.png,stimuli/Social2.png,stimuli/Social1.png,stimuli/Nonsocial2.png,stimuli/Nonsocial1.png,"(-0.7, -0.5)",cs_pos_ns_new,"(0.7, -0.5)",cs_neg_ns,0,0,0,0,,,,,0,63,63,41,,299.14876099998946,l,correct,0.43212430000130553,,38,D,2024-05-16_08h07.51.496,gca_discrimination2,2022.2.4,144.00838705867812,
positions.xlsx,stimuli.xlsx,test.xlsx,stimuli/Test1.png,stimuli/Test2.png,stimuli/Social4.png,stimuli/Social3.png,stimuli/Nonsocial4.png,stimuli/Nonsocial3.png,stimuli/Social2.png,stimuli/Social1.png,stimuli/Nonsocial2.png,stimuli/Nonsocial1.png,"(0.7, -0.5)",cs_pos_ns_new,"(0.7, 0.5)",cs_pos_ns_new,0,0,0,0,,,,,0,64,64,95,,301.59309389999544,ä,correct,0.41231089999200776,,38,D,2024-05-16_08h07.51.496,gca_discrimination2,2022.2.4,144.00838705867812,
positions.xlsx,stimuli.xlsx,test.xlsx,stimuli/Test1.png,stimuli/Test2.png,stimuli/Social4.png,stimuli/Social3.png,stimuli/Nonsocial4.png,stimuli/Nonsocial3.png,stimuli/Social2.png,stimuli/Social1.png,stimuli/Nonsocial2.png,stimuli/Nonsocial1.png,"(0.7, 0.5)",cs_neg_ns,"(0.7, -0.5)",cs_neg_ns,0,0,0,0,,,,,0,65,65,85,,304.78046539999195,ä,correct,0.5362083000072744,,38,D,2024-05-16_08h07.51.496,gca_discrimination2,2022.2.4,144.00838705867812,
positions.xlsx,stimuli.xlsx,test.xlsx,stimuli/Test1.png,stimuli/Test2.png,stimuli/Social4.png,stimuli/Social3.png,stimuli/Nonsocial4.png,stimuli/Nonsocial3.png,stimuli/Social2.png,stimuli/Social1.png,stimuli/Nonsocial2.png,stimuli/Nonsocial1.png,"(-0.7, -0.5)",cs_neg_ns,"(-0.7, 0.5)",cs_pos_ns,0,0,0,0,,,,,0,66,66,45,,307.28034769999795,l,correct,0.365160699991975,,38,D,2024-05-16_08h07.51.496,gca_discrimination2,2022.2.4,144.00838705867812,
positions.xlsx,stimuli.xlsx,test.xlsx,stimuli/Test1.png,stimuli/Test2.png,stimuli/Social4.png,stimuli/Social3.png,stimuli/Nonsocial4.png,stimuli/Nonsocial3.png,stimuli/Social2.png,stimuli/Social1.png,stimuli/Nonsocial2.png,stimuli/Nonsocial1.png,"(0.7, -0.5)",cs_pos_ns,"(0.7, 0.5)",cs_neg_ns_new,0,0,0,0,,,,,0,67,67,28,,309.5788356999983,l,correct,0.5303850999916904,,38,D,2024-05-16_08h07.51.496,gca_discrimination2,2022.2.4,144.00838705867812,
positions.xlsx,stimuli.xlsx,test.xlsx,stimuli/Test1.png,stimuli/Test2.png,stimuli/Social4.png,stimuli/Social3.png,stimuli/Nonsocial4.png,stimuli/Nonsocial3.png,stimuli/Social2.png,stimuli/Social1.png,stimuli/Nonsocial2.png,stimuli/Nonsocial1.png,"(0.7, 0.5)",cs_pos_ns,"(0.7, -0.5)",cs_neg_ns,0,0,0,0,,,,,0,68,68,37,,311.9676513999875,ä,wrong,0.6296967999951448,,38,D,2024-05-16_08h07.51.496,gca_discrimination2,2022.2.4,144.00838705867812,
positions.xlsx,stimuli.xlsx,test.xlsx,stimuli/Test1.png,stimuli/Test2.png,stimuli/Social4.png,stimuli/Social3.png,stimuli/Nonsocial4.png,stimuli/Nonsocial3.png,stimuli/Social2.png,stimuli/Social1.png,stimuli/Nonsocial2.png,stimuli/Nonsocial1.png,"(0.7, 0.5)",cs_neg_s_new,"(-0.7, -0.5)",cs_neg_s,0,0,0,0,,,,,0,69,69,9,,315.2453012999904,l,correct,0.5998787999851629,,38,D,2024-05-16_08h07.51.496,gca_discrimination2,2022.2.4,144.00838705867812,
positions.xlsx,stimuli.xlsx,test.xlsx,stimuli/Test1.png,stimuli/Test2.png,stimuli/Social4.png,stimuli/Social3.png,stimuli/Nonsocial4.png,stimuli/Nonsocial3.png,stimuli/Social2.png,stimuli/Social1.png,stimuli/Nonsocial2.png,stimuli/Nonsocial1.png,"(-0.7, -0.5)",cs_pos_ns_new,"(0.7, 0.5)",cs_pos_ns,0,0,0,0,,,,,0,70,70,46,,317.9604857999948,l,correct,0.7646895000070799,,38,D,2024-05-16_08h07.51.496,gca_discrimination2,2022.2.4,144.00838705867812,
positions.xlsx,stimuli.xlsx,test.xlsx,stimuli/Test1.png,stimuli/Test2.png,stimuli/Social4.png,stimuli/Social3.png,stimuli/Nonsocial4.png,stimuli/Nonsocial3.png,stimuli/Social2.png,stimuli/Social1.png,stimuli/Nonsocial2.png,stimuli/Nonsocial1.png,"(-0.7, -0.5)",cs_pos_ns_new,"(-0.7, 0.5)",cs_pos_ns,0,0,0,0,,,,,0,71,71,38,,321.19643359999463,l,correct,0.5129982999933418,,38,D,2024-05-16_08h07.51.496,gca_discrimination2,2022.2.4,144.00838705867812,
positions.xlsx,stimuli.xlsx,test.xlsx,stimuli/Test1.png,stimuli/Test2.png,stimuli/Social4.png,stimuli/Social3.png,stimuli/Nonsocial4.png,stimuli/Nonsocial3.png,stimuli/Social2.png,stimuli/Social1.png,stimuli/Nonsocial2.png,stimuli/Nonsocial1.png,"(-0.7, -0.5)",cs_neg_s,"(0.7, 0.5)",cs_neg_s,0,0,0,0,,,,,0,72,72,48,,324.363008299988,ä,correct,0.42760649998672307,,38,D,2024-05-16_08h07.51.496,gca_discrimination2,2022.2.4,144.00838705867812,
positions.xlsx,stimuli.xlsx,test.xlsx,stimuli/Test1.png,stimuli/Test2.png,stimuli/Social4.png,stimuli/Social3.png,stimuli/Nonsocial4.png,stimuli/Nonsocial3.png,stimuli/Social2.png,stimuli/Social1.png,stimuli/Nonsocial2.png,stimuli/Nonsocial1.png,"(0.7, 0.5)",cs_pos_ns_new,"(-0.7, 0.5)",cs_pos_ns,0,0,0,0,,,,,0,73,73,36,,327.0434127999906,ä,wrong,1.4821786999964388,,38,D,2024-05-16_08h07.51.496,gca_discrimination2,2022.2.4,144.00838705867812,
positions.xlsx,stimuli.xlsx,test.xlsx,stimuli/Test1.png,stimuli/Test2.png,stimuli/Social4.png,stimuli/Social3.png,stimuli/Nonsocial4.png,stimuli/Nonsocial3.png,stimuli/Social2.png,stimuli/Social1.png,stimuli/Nonsocial2.png,stimuli/Nonsocial1.png,"(-0.7, 0.5)",cs_pos_ns_new,"(0.7, -0.5)",cs_pos_ns_new,0,0,0,0,,,,,0,74,74,75,,330.7446806999942,ä,correct,0.48490599999786355,,38,D,2024-05-16_08h07.51.496,gca_discrimination2,2022.2.4,144.00838705867812,
positions.xlsx,stimuli.xlsx,test.xlsx,stimuli/Test1.png,stimuli/Test2.png,stimuli/Social4.png,stimuli/Social3.png,stimuli/Nonsocial4.png,stimuli/Nonsocial3.png,stimuli/Social2.png,stimuli/Social1.png,stimuli/Nonsocial2.png,stimuli/Nonsocial1.png,"(0.7, 0.5)",cs_neg_s,"(-0.7, -0.5)",cs_neg_s,0,0,0,0,,,,,0,75,75,68,,333.4320483999909,ä,correct,0.5888182999915443,,38,D,2024-05-16_08h07.51.496,gca_discrimination2,2022.2.4,144.00838705867812,
positions.xlsx,stimuli.xlsx,test.xlsx,stimuli/Test1.png,stimuli/Test2.png,stimuli/Social4.png,stimuli/Social3.png,stimuli/Nonsocial4.png,stimuli/Nonsocial3.png,stimuli/Social2.png,stimuli/Social1.png,stimuli/Nonsocial2.png,stimuli/Nonsocial1.png,"(0.7, -0.5)",cs_pos_ns_new,"(-0.7, -0.5)",cs_pos_ns_new,0,0,0,0,,,,,0,76,76,90,,336.7166591999994,ä,correct,0.3919115999888163,,38,D,2024-05-16_08h07.51.496,gca_discrimination2,2022.2.4,144.00838705867812,
positions.xlsx,stimuli.xlsx,test.xlsx,stimuli/Test1.png,stimuli/Test2.png,stimuli/Social4.png,stimuli/Social3.png,stimuli/Nonsocial4.png,stimuli/Nonsocial3.png,stimuli/Social2.png,stimuli/Social1.png,stimuli/Nonsocial2.png,stimuli/Nonsocial1.png,"(0.7, 0.5)",cs_pos_s,"(-0.7, 0.5)",cs_pos_s,0,0,0,0,,,,,0,77,77,59,,339.70262789999833,ä,correct,0.5104805000009947,,38,D,2024-05-16_08h07.51.496,gca_discrimination2,2022.2.4,144.00838705867812,
positions.xlsx,stimuli.xlsx,test.xlsx,stimuli/Test1.png,stimuli/Test2.png,stimuli/Social4.png,stimuli/Social3.png,stimuli/Nonsocial4.png,stimuli/Nonsocial3.png,stimuli/Social2.png,stimuli/Social1.png,stimuli/Nonsocial2.png,stimuli/Nonsocial1.png,"(-0.7, 0.5)",cs_pos_s,"(0.7, -0.5)",cs_pos_s,0,0,0,0,,,,,0,78,78,54,,342.74413579999236,ä,correct,0.5976525000005495,,38,D,2024-05-16_08h07.51.496,gca_discrimination2,2022.2.4,144.00838705867812,
positions.xlsx,stimuli.xlsx,test.xlsx,stimuli/Test1.png,stimuli/Test2.png,stimuli/Social4.png,stimuli/Social3.png,stimuli/Nonsocial4.png,stimuli/Nonsocial3.png,stimuli/Social2.png,stimuli/Social1.png,stimuli/Nonsocial2.png,stimuli/Nonsocial1.png,"(-0.7, 0.5)",cs_neg_ns_new,"(0.7, -0.5)",cs_neg_ns_new,0,0,0,0,,,,,0,79,79,78,,346.1607148999901,ä,correct,0.5885317000065697,,38,D,2024-05-16_08h07.51.496,gca_discrimination2,2022.2.4,144.00838705867812,
positions.xlsx,stimuli.xlsx,test.xlsx,stimuli/Test1.png,stimuli/Test2.png,stimuli/Social4.png,stimuli/Social3.png,stimuli/Nonsocial4.png,stimuli/Nonsocial3.png,stimuli/Social2.png,stimuli/Social1.png,stimuli/Nonsocial2.png,stimuli/Nonsocial1.png,"(0.7, -0.5)",cs_pos_s_new,"(-0.7, -0.5)",cs_neg_s_new,0,0,0,0,,,,,0,80,80,7,,349.2925113999954,ä,wrong,1.0320840000058524,,38,D,2024-05-16_08h07.51.496,gca_discrimination2,2022.2.4,144.00838705867812,
positions.xlsx,stimuli.xlsx,test.xlsx,stimuli/Test1.png,stimuli/Test2.png,stimuli/Social4.png,stimuli/Social3.png,stimuli/Nonsocial4.png,stimuli/Nonsocial3.png,stimuli/Social2.png,stimuli/Social1.png,stimuli/Nonsocial2.png,stimuli/Nonsocial1.png,"(-0.7, 0.5)",cs_pos_s,"(0.7, 0.5)",cs_pos_s_new,0,0,0,0,,,,,0,81,81,4,,352.52850059999037,l,correct,1.780358999996679,,38,D,2024-05-16_08h07.51.496,gca_discrimination2,2022.2.4,144.00838705867812,
positions.xlsx,stimuli.xlsx,test.xlsx,stimuli/Test1.png,stimuli/Test2.png,stimuli/Social4.png,stimuli/Social3.png,stimuli/Nonsocial4.png,stimuli/Nonsocial3.png,stimuli/Social2.png,stimuli/Social1.png,stimuli/Nonsocial2.png,stimuli/Nonsocial1.png,"(-0.7, 0.5)",cs_pos_ns,"(0.7, 0.5)",cs_pos_ns,0,0,0,0,,,,,0,82,82,81,,357.02136469999095,ä,correct,0.5354229000076884,,38,D,2024-05-16_08h07.51.496,gca_discrimination2,2022.2.4,144.00838705867812,
positions.xlsx,stimuli.xlsx,test.xlsx,stimuli/Test1.png,stimuli/Test2.png,stimuli/Social4.png,stimuli/Social3.png,stimuli/Nonsocial4.png,stimuli/Nonsocial3.png,stimuli/Social2.png,stimuli/Social1.png,stimuli/Nonsocial2.png,stimuli/Nonsocial1.png,"(0.7, -0.5)",cs_pos_ns,"(0.7, 0.5)",cs_pos_ns,0,0,0,0,,,,,0,83,83,88,,359.7226112999924,ä,correct,0.35580999999365304,,38,D,2024-05-16_08h07.51.496,gca_discrimination2,2022.2.4,144.00838705867812,
positions.xlsx,stimuli.xlsx,test.xlsx,stimuli/Test1.png,stimuli/Test2.png,stimuli/Social4.png,stimuli/Social3.png,stimuli/Nonsocial4.png,stimuli/Nonsocial3.png,stimuli/Social2.png,stimuli/Social1.png,stimuli/Nonsocial2.png,stimuli/Nonsocial1.png,"(0.7, -0.5)",cs_neg_s,"(-0.7, 0.5)",cs_pos_s_new,0,0,0,0,,,,,0,84,84,21,,362.47947159998876,l,correct,0.3822820000059437,,38,D,2024-05-16_08h07.51.496,gca_discrimination2,2022.2.4,144.00838705867812,
positions.xlsx,stimuli.xlsx,test.xlsx,stimuli/Test1.png,stimuli/Test2.png,stimuli/Social4.png,stimuli/Social3.png,stimuli/Nonsocial4.png,stimuli/Nonsocial3.png,stimuli/Social2.png,stimuli/Social1.png,stimuli/Nonsocial2.png,stimuli/Nonsocial1.png,"(-0.7, -0.5)",cs_pos_ns,"(-0.7, 0.5)",cs_pos_ns,0,0,0,0,,,,,0,85,85,82,,364.96549550000054,ä,correct,0.35978079999040347,,38,D,2024-05-16_08h07.51.496,gca_discrimination2,2022.2.4,144.00838705867812,
positions.xlsx,stimuli.xlsx,test.xlsx,stimuli/Test1.png,stimuli/Test2.png,stimuli/Social4.png,stimuli/Social3.png,stimuli/Nonsocial4.png,stimuli/Nonsocial3.png,stimuli/Social2.png,stimuli/Social1.png,stimuli/Nonsocial2.png,stimuli/Nonsocial1.png,"(0.7, -0.5)",cs_pos_s,"(-0.7, 0.5)",cs_neg_s,0,0,0,0,,,,,0,86,86,16,,367.99315849998675,l,correct,0.5885380999970948,,38,D,2024-05-16_08h07.51.496,gca_discrimination2,2022.2.4,144.00838705867812,
positions.xlsx,stimuli.xlsx,test.xlsx,stimuli/Test1.png,stimuli/Test2.png,stimuli/Social4.png,stimuli/Social3.png,stimuli/Nonsocial4.png,stimuli/Nonsocial3.png,stimuli/Social2.png,stimuli/Social1.png,stimuli/Nonsocial2.png,stimuli/Nonsocial1.png,"(0.7, -0.5)",cs_pos_s_new,"(-0.7, -0.5)",cs_pos_s,0,0,0,0,,,,,0,87,87,18,,371.0138799999986,l,correct,0.7350300999969477,,38,D,2024-05-16_08h07.51.496,gca_discrimination2,2022.2.4,144.00838705867812,
positions.xlsx,stimuli.xlsx,test.xlsx,stimuli/Test1.png,stimuli/Test2.png,stimuli/Social4.png,stimuli/Social3.png,stimuli/Nonsocial4.png,stimuli/Nonsocial3.png,stimuli/Social2.png,stimuli/Social1.png,stimuli/Nonsocial2.png,stimuli/Nonsocial1.png,"(0.7, -0.5)",cs_neg_s,"(-0.7, -0.5)",cs_neg_s_new,0,0,0,0,,,,,0,88,88,10,,373.9164982999937,l,correct,1.1205093000025954,,38,D,2024-05-16_08h07.51.496,gca_discrimination2,2022.2.4,144.00838705867812,
positions.xlsx,stimuli.xlsx,test.xlsx,stimuli/Test1.png,stimuli/Test2.png,stimuli/Social4.png,stimuli/Social3.png,stimuli/Nonsocial4.png,stimuli/Nonsocial3.png,stimuli/Social2.png,stimuli/Social1.png,stimuli/Nonsocial2.png,stimuli/Nonsocial1.png,"(0.7, 0.5)",cs_pos_s,"(0.7, -0.5)",cs_neg_s_new,0,0,0,0,,,,,0,89,89,2,,377.8121788999997,l,correct,0.9047700999944936,,38,D,2024-05-16_08h07.51.496,gca_discrimination2,2022.2.4,144.00838705867812,
positions.xlsx,stimuli.xlsx,test.xlsx,stimuli/Test1.png,stimuli/Test2.png,stimuli/Social4.png,stimuli/Social3.png,stimuli/Nonsocial4.png,stimuli/Nonsocial3.png,stimuli/Social2.png,stimuli/Social1.png,stimuli/Nonsocial2.png,stimuli/Nonsocial1.png,"(0.7, 0.5)",cs_pos_s,"(-0.7, 0.5)",cs_pos_s_new,0,0,0,0,,,,,0,90,90,19,,381.0203907999967,l,correct,0.6642141000047559,,38,D,2024-05-16_08h07.51.496,gca_discrimination2,2022.2.4,144.00838705867812,
positions.xlsx,stimuli.xlsx,test.xlsx,stimuli/Test1.png,stimuli/Test2.png,stimuli/Social4.png,stimuli/Social3.png,stimuli/Nonsocial4.png,stimuli/Nonsocial3.png,stimuli/Social2.png,stimuli/Social1.png,stimuli/Nonsocial2.png,stimuli/Nonsocial1.png,"(0.7, 0.5)",cs_neg_ns,"(-0.7, 0.5)",cs_neg_ns,0,0,0,0,,,,,0,91,91,83,,383.714739499992,ä,correct,0.45055710000451654,,38,D,2024-05-16_08h07.51.496,gca_discrimination2,2022.2.4,144.00838705867812,
positions.xlsx,stimuli.xlsx,test.xlsx,stimuli/Test1.png,stimuli/Test2.png,stimuli/Social4.png,stimuli/Social3.png,stimuli/Nonsocial4.png,stimuli/Nonsocial3.png,stimuli/Social2.png,stimuli/Social1.png,stimuli/Nonsocial2.png,stimuli/Nonsocial1.png,"(0.7, 0.5)",cs_neg_s,"(0.7, -0.5)",cs_neg_s,0,0,0,0,,,,,0,92,92,64,,386.4576696999866,ä,correct,0.46768889999657404,,38,D,2024-05-16_08h07.51.496,gca_discrimination2,2022.2.4,144.00838705867812,
positions.xlsx,stimuli.xlsx,test.xlsx,stimuli/Test1.png,stimuli/Test2.png,stimuli/Social4.png,stimuli/Social3.png,stimuli/Nonsocial4.png,stimuli/Nonsocial3.png,stimuli/Social2.png,stimuli/Social1.png,stimuli/Nonsocial2.png,stimuli/Nonsocial1.png,"(-0.7, -0.5)",cs_neg_s_new,"(0.7, 0.5)",cs_neg_s_new,0,0,0,0,,,,,0,93,93,61,,389.31170379999094,ä,correct,0.461193800001638,,38,D,2024-05-16_08h07.51.496,gca_discrimination2,2022.2.4,144.00838705867812,
positions.xlsx,stimuli.xlsx,test.xlsx,stimuli/Test1.png,stimuli/Test2.png,stimuli/Social4.png,stimuli/Social3.png,stimuli/Nonsocial4.png,stimuli/Nonsocial3.png,stimuli/Social2.png,stimuli/Social1.png,stimuli/Nonsocial2.png,stimuli/Nonsocial1.png,"(0.7, -0.5)",cs_pos_ns_new,"(-0.7, 0.5)",cs_pos_ns_new,0,0,0,0,,,,,0,94,94,79,,391.8810589999921,ä,correct,0.8210034999938216,,38,D,2024-05-16_08h07.51.496,gca_discrimination2,2022.2.4,144.00838705867812,
positions.xlsx,stimuli.xlsx,test.xlsx,stimuli/Test1.png,stimuli/Test2.png,stimuli/Social4.png,stimuli/Social3.png,stimuli/Nonsocial4.png,stimuli/Nonsocial3.png,stimuli/Social2.png,stimuli/Social1.png,stimuli/Nonsocial2.png,stimuli/Nonsocial1.png,"(-0.7, 0.5)",cs_neg_ns,"(0.7, -0.5)",cs_neg_ns,0,0,0,0,,,,,0,95,95,94,,394.9434276999964,l,wrong,1.0378622999996878,,38,D,2024-05-16_08h07.51.496,gca_discrimination2,2022.2.4,144.00838705867812,
