posFile,stimFile,testFile,test1,test2,cs_neg_s,cs_pos_s,cs_neg_ns,cs_pos_ns,cs_neg_s_new,cs_pos_s_new,cs_neg_ns_new,cs_pos_ns_new,position1,stim1,position2,stim2,blocks.thisRepN,blocks.thisTrialN,blocks.thisN,blocks.thisIndex,learning_trials.thisRepN,learning_trials.thisTrialN,learning_trials.thisN,learning_trials.thisIndex,trials.thisRepN,trials.thisTrialN,trials.thisN,trials.thisIndex,textStart.started,key.started,key.keys,correctness,key.rt,textStartTask.started,participant,group,date,expName,psychopyVersion,frameRate,
positions.xlsx,stimuli.xlsx,test.xlsx,stimuli/Test1.png,stimuli/Test2.png,stimuli/Social4.png,stimuli/Social3.png,stimuli/Nonsocial4.png,stimuli/Nonsocial3.png,stimuli/Social2.png,stimuli/Social1.png,stimuli/Nonsocial2.png,stimuli/Nonsocial1.png,"(0.7, -0.5)",test1,"(-0.7, -0.5)",test2,0,0,0,0,0,0,0,3,,,,,301.55591989995446,319.63850200001616,None,no answer,,,48,D,2024-05-22_13h07.31.056,gca_discrimination2,2022.2.4,144.04468846929586,
positions.xlsx,stimuli.xlsx,test.xlsx,stimuli/Test1.png,stimuli/Test2.png,stimuli/Social4.png,stimuli/Social3.png,stimuli/Nonsocial4.png,stimuli/Nonsocial3.png,stimuli/Social2.png,stimuli/Social1.png,stimuli/Nonsocial2.png,stimuli/Nonsocial1.png,"(-0.7, 0.5)",test2,"(-0.7, -0.5)",test1,0,0,0,0,0,1,1,1,,,,,,325.6799130999716,ä,correct,0.5466400999575853,,48,D,2024-05-22_13h07.31.056,gca_discrimination2,2022.2.4,144.04468846929586,
positions.xlsx,stimuli.xlsx,test.xlsx,stimuli/Test1.png,stimuli/Test2.png,stimuli/Social4.png,stimuli/Social3.png,stimuli/Nonsocial4.png,stimuli/Nonsocial3.png,stimuli/Social2.png,stimuli/Social1.png,stimuli/Nonsocial2.png,stimuli/Nonsocial1.png,"(-0.7, 0.5)",test1,"(-0.7, -0.5)",test2,0,0,0,0,0,2,2,2,,,,,,330.82554410002194,ä,correct,0.7930427000392228,,48,D,2024-05-22_13h07.31.056,gca_discrimination2,2022.2.4,144.04468846929586,
positions.xlsx,stimuli.xlsx,test.xlsx,stimuli/Test1.png,stimuli/Test2.png,stimuli/Social4.png,stimuli/Social3.png,stimuli/Nonsocial4.png,stimuli/Nonsocial3.png,stimuli/Social2.png,stimuli/Social1.png,stimuli/Nonsocial2.png,stimuli/Nonsocial1.png,"(-0.7, -0.5)",test1,"(0.7, -0.5)",test1,0,0,0,0,0,3,3,0,,,,,,335.5267289999174,l,correct,0.42804939998313785,,48,D,2024-05-22_13h07.31.056,gca_discrimination2,2022.2.4,144.04468846929586,
positions.xlsx,stimuli.xlsx,test.xlsx,stimuli/Test1.png,stimuli/Test2.png,stimuli/Social4.png,stimuli/Social3.png,stimuli/Nonsocial4.png,stimuli/Nonsocial3.png,stimuli/Social2.png,stimuli/Social1.png,stimuli/Nonsocial2.png,stimuli/Nonsocial1.png,"(0.7, 0.5)",test2,"(0.7, -0.5)",test1,0,0,0,0,0,4,4,4,,,,,,340.40848829993047,ä,correct,0.5696271000197157,,48,D,2024-05-22_13h07.31.056,gca_discrimination2,2022.2.4,144.04468846929586,
positions.xlsx,stimuli.xlsx,test.xlsx,stimuli/Test1.png,stimuli/Test2.png,stimuli/Social4.png,stimuli/Social3.png,stimuli/Nonsocial4.png,stimuli/Nonsocial3.png,stimuli/Social2.png,stimuli/Social1.png,stimuli/Nonsocial2.png,stimuli/Nonsocial1.png,"(-0.7, 0.5)",test1,"(0.7, 0.5)",test2,0,0,0,0,0,5,5,5,,,,,,345.2555060000159,ä,correct,0.4110127000603825,,48,D,2024-05-22_13h07.31.056,gca_discrimination2,2022.2.4,144.04468846929586,
positions.xlsx,stimuli.xlsx,test.xlsx,stimuli/Test1.png,stimuli/Test2.png,stimuli/Social4.png,stimuli/Social3.png,stimuli/Nonsocial4.png,stimuli/Nonsocial3.png,stimuli/Social2.png,stimuli/Social1.png,stimuli/Nonsocial2.png,stimuli/Nonsocial1.png,"(-0.7, -0.5)",test2,"(0.7, -0.5)",test2,0,0,0,0,0,6,6,9,,,,,,350.37332279991824,l,correct,0.4687641999917105,,48,D,2024-05-22_13h07.31.056,gca_discrimination2,2022.2.4,144.04468846929586,
positions.xlsx,stimuli.xlsx,test.xlsx,stimuli/Test1.png,stimuli/Test2.png,stimuli/Social4.png,stimuli/Social3.png,stimuli/Nonsocial4.png,stimuli/Nonsocial3.png,stimuli/Social2.png,stimuli/Social1.png,stimuli/Nonsocial2.png,stimuli/Nonsocial1.png,"(0.7, 0.5)",test1,"(-0.7, 0.5)",test1,0,0,0,0,0,7,7,8,,,,,,355.19260089995805,ä,wrong,0.3380964999087155,,48,D,2024-05-22_13h07.31.056,gca_discrimination2,2022.2.4,144.04468846929586,
positions.xlsx,stimuli.xlsx,test.xlsx,stimuli/Test1.png,stimuli/Test2.png,stimuli/Social4.png,stimuli/Social3.png,stimuli/Nonsocial4.png,stimuli/Nonsocial3.png,stimuli/Social2.png,stimuli/Social1.png,stimuli/Nonsocial2.png,stimuli/Nonsocial1.png,"(-0.7, 0.5)",test1,"(0.7, -0.5)",test2,0,0,0,0,0,8,8,6,,,,,,360.3451542999828,ä,correct,0.7854698000010103,,48,D,2024-05-22_13h07.31.056,gca_discrimination2,2022.2.4,144.04468846929586,
positions.xlsx,stimuli.xlsx,test.xlsx,stimuli/Test1.png,stimuli/Test2.png,stimuli/Social4.png,stimuli/Social3.png,stimuli/Nonsocial4.png,stimuli/Nonsocial3.png,stimuli/Social2.png,stimuli/Social1.png,stimuli/Nonsocial2.png,stimuli/Nonsocial1.png,"(0.7, -0.5)",test1,"(-0.7, 0.5)",test1,0,0,0,0,0,9,9,7,,,,,,365.6782929999754,ä,wrong,0.6761211999692023,,48,D,2024-05-22_13h07.31.056,gca_discrimination2,2022.2.4,144.04468846929586,
positions.xlsx,stimuli.xlsx,test.xlsx,stimuli/Test1.png,stimuli/Test2.png,stimuli/Social4.png,stimuli/Social3.png,stimuli/Nonsocial4.png,stimuli/Nonsocial3.png,stimuli/Social2.png,stimuli/Social1.png,stimuli/Nonsocial2.png,stimuli/Nonsocial1.png,"(0.7, -0.5)",cs_neg_s_new,"(-0.7, 0.5)",cs_neg_s_new,0,0,0,0,,,,,0,0,0,69,,395.54515459993854,l,correct,0.7928358999779448,368.9975885999156,48,D,2024-05-22_13h07.31.056,gca_discrimination2,2022.2.4,144.04468846929586,
positions.xlsx,stimuli.xlsx,test.xlsx,stimuli/Test1.png,stimuli/Test2.png,stimuli/Social4.png,stimuli/Social3.png,stimuli/Nonsocial4.png,stimuli/Nonsocial3.png,stimuli/Social2.png,stimuli/Social1.png,stimuli/Nonsocial2.png,stimuli/Nonsocial1.png,"(0.7, -0.5)",cs_pos_ns_new,"(0.7, 0.5)",cs_pos_ns_new,0,0,0,0,,,,,0,1,1,73,,398.51720360002946,l,correct,0.9255591999972239,,48,D,2024-05-22_13h07.31.056,gca_discrimination2,2022.2.4,144.04468846929586,
positions.xlsx,stimuli.xlsx,test.xlsx,stimuli/Test1.png,stimuli/Test2.png,stimuli/Social4.png,stimuli/Social3.png,stimuli/Nonsocial4.png,stimuli/Nonsocial3.png,stimuli/Social2.png,stimuli/Social1.png,stimuli/Nonsocial2.png,stimuli/Nonsocial1.png,"(-0.7, 0.5)",cs_pos_s,"(0.7, 0.5)",cs_pos_s,0,0,0,0,,,,,0,2,2,70,,401.89206520002335,l,correct,1.4942292000632733,,48,D,2024-05-22_13h07.31.056,gca_discrimination2,2022.2.4,144.04468846929586,
positions.xlsx,stimuli.xlsx,test.xlsx,stimuli/Test1.png,stimuli/Test2.png,stimuli/Social4.png,stimuli/Social3.png,stimuli/Nonsocial4.png,stimuli/Nonsocial3.png,stimuli/Social2.png,stimuli/Social1.png,stimuli/Nonsocial2.png,stimuli/Nonsocial1.png,"(0.7, 0.5)",cs_neg_ns,"(-0.7, 0.5)",cs_neg_ns_new,0,0,0,0,,,,,0,3,3,29,,405.2738583999453,ä,correct,0.8245526999235153,,48,D,2024-05-22_13h07.31.056,gca_discrimination2,2022.2.4,144.04468846929586,
positions.xlsx,stimuli.xlsx,test.xlsx,stimuli/Test1.png,stimuli/Test2.png,stimuli/Social4.png,stimuli/Social3.png,stimuli/Nonsocial4.png,stimuli/Nonsocial3.png,stimuli/Social2.png,stimuli/Social1.png,stimuli/Nonsocial2.png,stimuli/Nonsocial1.png,"(0.7, 0.5)",cs_neg_s_new,"(-0.7, 0.5)",cs_neg_s,0,0,0,0,,,,,0,4,4,15,,408.732058799942,ä,correct,0.8941156999208033,,48,D,2024-05-22_13h07.31.056,gca_discrimination2,2022.2.4,144.04468846929586,
positions.xlsx,stimuli.xlsx,test.xlsx,stimuli/Test1.png,stimuli/Test2.png,stimuli/Social4.png,stimuli/Social3.png,stimuli/Nonsocial4.png,stimuli/Nonsocial3.png,stimuli/Social2.png,stimuli/Social1.png,stimuli/Nonsocial2.png,stimuli/Nonsocial1.png,"(-0.7, 0.5)",cs_pos_s_new,"(0.7, -0.5)",cs_pos_s_new,0,0,0,0,,,,,0,5,5,62,,411.5166725999443,l,correct,1.1979110999964178,,48,D,2024-05-22_13h07.31.056,gca_discrimination2,2022.2.4,144.04468846929586,
positions.xlsx,stimuli.xlsx,test.xlsx,stimuli/Test1.png,stimuli/Test2.png,stimuli/Social4.png,stimuli/Social3.png,stimuli/Nonsocial4.png,stimuli/Nonsocial3.png,stimuli/Social2.png,stimuli/Social1.png,stimuli/Nonsocial2.png,stimuli/Nonsocial1.png,"(0.7, -0.5)",cs_pos_ns,"(-0.7, 0.5)",cs_pos_ns_new,0,0,0,0,,,,,0,6,6,30,,415.21101389999967,l,wrong,0.9510657000355422,,48,D,2024-05-22_13h07.31.056,gca_discrimination2,2022.2.4,144.04468846929586,
positions.xlsx,stimuli.xlsx,test.xlsx,stimuli/Test1.png,stimuli/Test2.png,stimuli/Social4.png,stimuli/Social3.png,stimuli/Nonsocial4.png,stimuli/Nonsocial3.png,stimuli/Social2.png,stimuli/Social1.png,stimuli/Nonsocial2.png,stimuli/Nonsocial1.png,"(-0.7, -0.5)",cs_pos_ns,"(0.7, -0.5)",cs_neg_ns_new,0,0,0,0,,,,,0,7,7,31,,418.4191252000164,ä,correct,0.8075131000950933,,48,D,2024-05-22_13h07.31.056,gca_discrimination2,2022.2.4,144.04468846929586,
positions.xlsx,stimuli.xlsx,test.xlsx,stimuli/Test1.png,stimuli/Test2.png,stimuli/Social4.png,stimuli/Social3.png,stimuli/Nonsocial4.png,stimuli/Nonsocial3.png,stimuli/Social2.png,stimuli/Social1.png,stimuli/Nonsocial2.png,stimuli/Nonsocial1.png,"(0.7, -0.5)",cs_neg_s,"(0.7, 0.5)",cs_neg_s_new,0,0,0,0,,,,,0,8,8,6,,421.9954429999925,ä,correct,0.9671613000100479,,48,D,2024-05-22_13h07.31.056,gca_discrimination2,2022.2.4,144.04468846929586,
positions.xlsx,stimuli.xlsx,test.xlsx,stimuli/Test1.png,stimuli/Test2.png,stimuli/Social4.png,stimuli/Social3.png,stimuli/Nonsocial4.png,stimuli/Nonsocial3.png,stimuli/Social2.png,stimuli/Social1.png,stimuli/Nonsocial2.png,stimuli/Nonsocial1.png,"(-0.7, -0.5)",cs_neg_s_new,"(0.7, 0.5)",cs_pos_s,0,0,0,0,,,,,0,9,9,19,,424.97442119999323,ä,correct,1.1318922000937164,,48,D,2024-05-22_13h07.31.056,gca_discrimination2,2022.2.4,144.04468846929586,
positions.xlsx,stimuli.xlsx,test.xlsx,stimuli/Test1.png,stimuli/Test2.png,stimuli/Social4.png,stimuli/Social3.png,stimuli/Nonsocial4.png,stimuli/Nonsocial3.png,stimuli/Social2.png,stimuli/Social1.png,stimuli/Nonsocial2.png,stimuli/Nonsocial1.png,"(-0.7, -0.5)",cs_pos_s_new,"(0.7, 0.5)",cs_pos_s_new,0,0,0,0,,,,,0,10,10,48,,428.55070120003074,l,correct,0.8036855000536889,,48,D,2024-05-22_13h07.31.056,gca_discrimination2,2022.2.4,144.04468846929586,
positions.xlsx,stimuli.xlsx,test.xlsx,stimuli/Test1.png,stimuli/Test2.png,stimuli/Social4.png,stimuli/Social3.png,stimuli/Nonsocial4.png,stimuli/Nonsocial3.png,stimuli/Social2.png,stimuli/Social1.png,stimuli/Nonsocial2.png,stimuli/Nonsocial1.png,"(-0.7, 0.5)",cs_neg_s_new,"(0.7, -0.5)",cs_neg_s_new,0,0,0,0,,,,,0,11,11,55,,431.48806969996076,l,correct,1.4027078999206424,,48,D,2024-05-22_13h07.31.056,gca_discrimination2,2022.2.4,144.04468846929586,
positions.xlsx,stimuli.xlsx,test.xlsx,stimuli/Test1.png,stimuli/Test2.png,stimuli/Social4.png,stimuli/Social3.png,stimuli/Nonsocial4.png,stimuli/Nonsocial3.png,stimuli/Social2.png,stimuli/Social1.png,stimuli/Nonsocial2.png,stimuli/Nonsocial1.png,"(-0.7, 0.5)",cs_neg_s,"(0.7, 0.5)",cs_pos_s,0,0,0,0,,,,,0,12,12,8,,435.09207639994565,ä,correct,0.934135299990885,,48,D,2024-05-22_13h07.31.056,gca_discrimination2,2022.2.4,144.04468846929586,
positions.xlsx,stimuli.xlsx,test.xlsx,stimuli/Test1.png,stimuli/Test2.png,stimuli/Social4.png,stimuli/Social3.png,stimuli/Nonsocial4.png,stimuli/Nonsocial3.png,stimuli/Social2.png,stimuli/Social1.png,stimuli/Nonsocial2.png,stimuli/Nonsocial1.png,"(-0.7, -0.5)",cs_neg_ns,"(0.7, -0.5)",cs_pos_ns_new,0,0,0,0,,,,,0,13,13,28,,438.6405047000153,ä,correct,0.6269754000240937,,48,D,2024-05-22_13h07.31.056,gca_discrimination2,2022.2.4,144.04468846929586,
positions.xlsx,stimuli.xlsx,test.xlsx,stimuli/Test1.png,stimuli/Test2.png,stimuli/Social4.png,stimuli/Social3.png,stimuli/Nonsocial4.png,stimuli/Nonsocial3.png,stimuli/Social2.png,stimuli/Social1.png,stimuli/Nonsocial2.png,stimuli/Nonsocial1.png,"(0.7, 0.5)",cs_pos_s_new,"(-0.7, -0.5)",cs_pos_s_new,0,0,0,0,,,,,0,14,14,57,,441.80013659992255,l,correct,1.3139106000307947,,48,D,2024-05-22_13h07.31.056,gca_discrimination2,2022.2.4,144.04468846929586,
positions.xlsx,stimuli.xlsx,test.xlsx,stimuli/Test1.png,stimuli/Test2.png,stimuli/Social4.png,stimuli/Social3.png,stimuli/Nonsocial4.png,stimuli/Nonsocial3.png,stimuli/Social2.png,stimuli/Social1.png,stimuli/Nonsocial2.png,stimuli/Nonsocial1.png,"(-0.7, -0.5)",cs_neg_ns_new,"(0.7, 0.5)",cs_pos_ns,0,0,0,0,,,,,0,15,15,33,,445.5708236999344,l,wrong,1.0083320999983698,,48,D,2024-05-22_13h07.31.056,gca_discrimination2,2022.2.4,144.04468846929586,
positions.xlsx,stimuli.xlsx,test.xlsx,stimuli/Test1.png,stimuli/Test2.png,stimuli/Social4.png,stimuli/Social3.png,stimuli/Nonsocial4.png,stimuli/Nonsocial3.png,stimuli/Social2.png,stimuli/Social1.png,stimuli/Nonsocial2.png,stimuli/Nonsocial1.png,"(-0.7, 0.5)",cs_pos_s_new,"(0.7, -0.5)",cs_neg_s_new,0,0,0,0,,,,,0,16,16,5,,449.10541069996543,ä,correct,0.8488893999019638,,48,D,2024-05-22_13h07.31.056,gca_discrimination2,2022.2.4,144.04468846929586,
positions.xlsx,stimuli.xlsx,test.xlsx,stimuli/Test1.png,stimuli/Test2.png,stimuli/Social4.png,stimuli/Social3.png,stimuli/Nonsocial4.png,stimuli/Nonsocial3.png,stimuli/Social2.png,stimuli/Social1.png,stimuli/Nonsocial2.png,stimuli/Nonsocial1.png,"(0.7, 0.5)",cs_neg_s_new,"(-0.7, -0.5)",cs_pos_s_new,0,0,0,0,,,,,0,17,17,3,,452.0983337999787,l,wrong,1.1042632000753656,,48,D,2024-05-22_13h07.31.056,gca_discrimination2,2022.2.4,144.04468846929586,
positions.xlsx,stimuli.xlsx,test.xlsx,stimuli/Test1.png,stimuli/Test2.png,stimuli/Social4.png,stimuli/Social3.png,stimuli/Nonsocial4.png,stimuli/Nonsocial3.png,stimuli/Social2.png,stimuli/Social1.png,stimuli/Nonsocial2.png,stimuli/Nonsocial1.png,"(0.7, -0.5)",cs_pos_ns,"(0.7, 0.5)",cs_neg_ns,0,0,0,0,,,,,0,18,18,47,,455.0426585000241,ä,correct,0.9119572000345215,,48,D,2024-05-22_13h07.31.056,gca_discrimination2,2022.2.4,144.04468846929586,
positions.xlsx,stimuli.xlsx,test.xlsx,stimuli/Test1.png,stimuli/Test2.png,stimuli/Social4.png,stimuli/Social3.png,stimuli/Nonsocial4.png,stimuli/Nonsocial3.png,stimuli/Social2.png,stimuli/Social1.png,stimuli/Nonsocial2.png,stimuli/Nonsocial1.png,"(0.7, -0.5)",cs_neg_s,"(-0.7, -0.5)",cs_pos_s,0,0,0,0,,,,,0,19,19,9,,458.25084260001313,ä,correct,0.8005086000775918,,48,D,2024-05-22_13h07.31.056,gca_discrimination2,2022.2.4,144.04468846929586,
positions.xlsx,stimuli.xlsx,test.xlsx,stimuli/Test1.png,stimuli/Test2.png,stimuli/Social4.png,stimuli/Social3.png,stimuli/Nonsocial4.png,stimuli/Nonsocial3.png,stimuli/Social2.png,stimuli/Social1.png,stimuli/Nonsocial2.png,stimuli/Nonsocial1.png,"(0.7, 0.5)",cs_neg_s,"(-0.7, -0.5)",cs_neg_s,0,0,0,0,,,,,0,20,20,49,,461.542390699964,l,correct,0.5398550999816507,,48,D,2024-05-22_13h07.31.056,gca_discrimination2,2022.2.4,144.04468846929586,
positions.xlsx,stimuli.xlsx,test.xlsx,stimuli/Test1.png,stimuli/Test2.png,stimuli/Social4.png,stimuli/Social3.png,stimuli/Nonsocial4.png,stimuli/Nonsocial3.png,stimuli/Social2.png,stimuli/Social1.png,stimuli/Nonsocial2.png,stimuli/Nonsocial1.png,"(-0.7, 0.5)",cs_neg_ns_new,"(0.7, -0.5)",cs_neg_ns_new,0,0,0,0,,,,,0,21,21,80,,464.79224550002255,ä,wrong,0.6191617000149563,,48,D,2024-05-22_13h07.31.056,gca_discrimination2,2022.2.4,144.04468846929586,
positions.xlsx,stimuli.xlsx,test.xlsx,stimuli/Test1.png,stimuli/Test2.png,stimuli/Social4.png,stimuli/Social3.png,stimuli/Nonsocial4.png,stimuli/Nonsocial3.png,stimuli/Social2.png,stimuli/Social1.png,stimuli/Nonsocial2.png,stimuli/Nonsocial1.png,"(-0.7, -0.5)",cs_neg_s_new,"(0.7, -0.5)",cs_neg_s,0,0,0,0,,,,,0,22,22,12,,467.42409470002167,ä,correct,0.9858424999983981,,48,D,2024-05-22_13h07.31.056,gca_discrimination2,2022.2.4,144.04468846929586,
positions.xlsx,stimuli.xlsx,test.xlsx,stimuli/Test1.png,stimuli/Test2.png,stimuli/Social4.png,stimuli/Social3.png,stimuli/Nonsocial4.png,stimuli/Nonsocial3.png,stimuli/Social2.png,stimuli/Social1.png,stimuli/Nonsocial2.png,stimuli/Nonsocial1.png,"(0.7, -0.5)",cs_pos_ns_new,"(-0.7, 0.5)",cs_pos_ns_new,0,0,0,0,,,,,0,23,23,88,,470.7017414999427,l,correct,0.7252610999858007,,48,D,2024-05-22_13h07.31.056,gca_discrimination2,2022.2.4,144.04468846929586,
positions.xlsx,stimuli.xlsx,test.xlsx,stimuli/Test1.png,stimuli/Test2.png,stimuli/Social4.png,stimuli/Social3.png,stimuli/Nonsocial4.png,stimuli/Nonsocial3.png,stimuli/Social2.png,stimuli/Social1.png,stimuli/Nonsocial2.png,stimuli/Nonsocial1.png,"(-0.7, -0.5)",cs_neg_s,"(-0.7, 0.5)",cs_pos_s_new,0,0,0,0,,,,,0,24,24,7,,473.7016313999193,ä,correct,0.6209335000021383,,48,D,2024-05-22_13h07.31.056,gca_discrimination2,2022.2.4,144.04468846929586,
positions.xlsx,stimuli.xlsx,test.xlsx,stimuli/Test1.png,stimuli/Test2.png,stimuli/Social4.png,stimuli/Social3.png,stimuli/Nonsocial4.png,stimuli/Nonsocial3.png,stimuli/Social2.png,stimuli/Social1.png,stimuli/Nonsocial2.png,stimuli/Nonsocial1.png,"(0.7, 0.5)",cs_pos_s,"(-0.7, 0.5)",cs_pos_s,0,0,0,0,,,,,0,25,25,68,,476.70844870002475,l,correct,0.8461485999869183,,48,D,2024-05-22_13h07.31.056,gca_discrimination2,2022.2.4,144.04468846929586,
positions.xlsx,stimuli.xlsx,test.xlsx,stimuli/Test1.png,stimuli/Test2.png,stimuli/Social4.png,stimuli/Social3.png,stimuli/Nonsocial4.png,stimuli/Nonsocial3.png,stimuli/Social2.png,stimuli/Social1.png,stimuli/Nonsocial2.png,stimuli/Nonsocial1.png,"(0.7, -0.5)",cs_neg_ns,"(-0.7, -0.5)",cs_neg_ns_new,0,0,0,0,,,,,0,26,26,25,,479.6805478000315,ä,correct,0.6177454000571743,,48,D,2024-05-22_13h07.31.056,gca_discrimination2,2022.2.4,144.04468846929586,
positions.xlsx,stimuli.xlsx,test.xlsx,stimuli/Test1.png,stimuli/Test2.png,stimuli/Social4.png,stimuli/Social3.png,stimuli/Nonsocial4.png,stimuli/Nonsocial3.png,stimuli/Social2.png,stimuli/Social1.png,stimuli/Nonsocial2.png,stimuli/Nonsocial1.png,"(0.7, -0.5)",cs_neg_ns_new,"(-0.7, -0.5)",cs_neg_ns_new,0,0,0,0,,,,,0,27,27,75,,482.4095456999494,l,correct,0.8082715999335051,,48,D,2024-05-22_13h07.31.056,gca_discrimination2,2022.2.4,144.04468846929586,
positions.xlsx,stimuli.xlsx,test.xlsx,stimuli/Test1.png,stimuli/Test2.png,stimuli/Social4.png,stimuli/Social3.png,stimuli/Nonsocial4.png,stimuli/Nonsocial3.png,stimuli/Social2.png,stimuli/Social1.png,stimuli/Nonsocial2.png,stimuli/Nonsocial1.png,"(-0.7, 0.5)",cs_neg_s_new,"(-0.7, -0.5)",cs_neg_s_new,0,0,0,0,,,,,0,28,28,65,,485.36087340000086,l,correct,1.521008100011386,,48,D,2024-05-22_13h07.31.056,gca_discrimination2,2022.2.4,144.04468846929586,
positions.xlsx,stimuli.xlsx,test.xlsx,stimuli/Test1.png,stimuli/Test2.png,stimuli/Social4.png,stimuli/Social3.png,stimuli/Nonsocial4.png,stimuli/Nonsocial3.png,stimuli/Social2.png,stimuli/Social1.png,stimuli/Nonsocial2.png,stimuli/Nonsocial1.png,"(-0.7, -0.5)",cs_neg_s,"(-0.7, 0.5)",cs_neg_s_new,0,0,0,0,,,,,0,29,29,17,,488.83991109998897,ä,correct,0.8504851000616327,,48,D,2024-05-22_13h07.31.056,gca_discrimination2,2022.2.4,144.04468846929586,
positions.xlsx,stimuli.xlsx,test.xlsx,stimuli/Test1.png,stimuli/Test2.png,stimuli/Social4.png,stimuli/Social3.png,stimuli/Nonsocial4.png,stimuli/Nonsocial3.png,stimuli/Social2.png,stimuli/Social1.png,stimuli/Nonsocial2.png,stimuli/Nonsocial1.png,"(0.7, -0.5)",cs_neg_s,"(-0.7, 0.5)",cs_neg_s_new,0,0,0,0,,,,,0,30,30,1,,491.7425377999898,ä,correct,0.8927083000307903,,48,D,2024-05-22_13h07.31.056,gca_discrimination2,2022.2.4,144.04468846929586,
positions.xlsx,stimuli.xlsx,test.xlsx,stimuli/Test1.png,stimuli/Test2.png,stimuli/Social4.png,stimuli/Social3.png,stimuli/Nonsocial4.png,stimuli/Nonsocial3.png,stimuli/Social2.png,stimuli/Social1.png,stimuli/Nonsocial2.png,stimuli/Nonsocial1.png,"(0.7, 0.5)",cs_neg_s_new,"(0.7, -0.5)",cs_neg_s_new,0,0,0,0,,,,,0,31,31,53,,494.5618704999797,l,correct,1.3047819999046624,,48,D,2024-05-22_13h07.31.056,gca_discrimination2,2022.2.4,144.04468846929586,
positions.xlsx,stimuli.xlsx,test.xlsx,stimuli/Test1.png,stimuli/Test2.png,stimuli/Social4.png,stimuli/Social3.png,stimuli/Nonsocial4.png,stimuli/Nonsocial3.png,stimuli/Social2.png,stimuli/Social1.png,stimuli/Nonsocial2.png,stimuli/Nonsocial1.png,"(0.7, -0.5)",cs_pos_s,"(-0.7, 0.5)",cs_pos_s,0,0,0,0,,,,,0,32,32,71,,497.92978409992065,l,correct,0.8638956999639049,,48,D,2024-05-22_13h07.31.056,gca_discrimination2,2022.2.4,144.04468846929586,
positions.xlsx,stimuli.xlsx,test.xlsx,stimuli/Test1.png,stimuli/Test2.png,stimuli/Social4.png,stimuli/Social3.png,stimuli/Nonsocial4.png,stimuli/Nonsocial3.png,stimuli/Social2.png,stimuli/Social1.png,stimuli/Nonsocial2.png,stimuli/Nonsocial1.png,"(0.7, 0.5)",cs_neg_s,"(-0.7, -0.5)",cs_pos_s,0,0,0,0,,,,,0,33,33,4,,501.5615804999834,ä,correct,0.6961687000002712,,48,D,2024-05-22_13h07.31.056,gca_discrimination2,2022.2.4,144.04468846929586,
positions.xlsx,stimuli.xlsx,test.xlsx,stimuli/Test1.png,stimuli/Test2.png,stimuli/Social4.png,stimuli/Social3.png,stimuli/Nonsocial4.png,stimuli/Nonsocial3.png,stimuli/Social2.png,stimuli/Social1.png,stimuli/Nonsocial2.png,stimuli/Nonsocial1.png,"(0.7, 0.5)",cs_neg_ns_new,"(0.7, -0.5)",cs_pos_ns_new,0,0,0,0,,,,,0,34,34,43,,504.53367779997643,ä,correct,0.6763190000783652,,48,D,2024-05-22_13h07.31.056,gca_discrimination2,2022.2.4,144.04468846929586,
positions.xlsx,stimuli.xlsx,test.xlsx,stimuli/Test1.png,stimuli/Test2.png,stimuli/Social4.png,stimuli/Social3.png,stimuli/Nonsocial4.png,stimuli/Nonsocial3.png,stimuli/Social2.png,stimuli/Social1.png,stimuli/Nonsocial2.png,stimuli/Nonsocial1.png,"(-0.7, -0.5)",cs_pos_ns,"(0.7, -0.5)",cs_pos_ns,0,0,0,0,,,,,0,35,35,83,,507.0891291999724,l,correct,0.7623124999227002,,48,D,2024-05-22_13h07.31.056,gca_discrimination2,2022.2.4,144.04468846929586,
positions.xlsx,stimuli.xlsx,test.xlsx,stimuli/Test1.png,stimuli/Test2.png,stimuli/Social4.png,stimuli/Social3.png,stimuli/Nonsocial4.png,stimuli/Nonsocial3.png,stimuli/Social2.png,stimuli/Social1.png,stimuli/Nonsocial2.png,stimuli/Nonsocial1.png,"(-0.7, -0.5)",cs_pos_s,"(0.7, 0.5)",cs_pos_s_new,0,0,0,0,,,,,0,36,36,2,,510.5820433999179,ä,correct,0.7322130999527872,,48,D,2024-05-22_13h07.31.056,gca_discrimination2,2022.2.4,144.04468846929586,
positions.xlsx,stimuli.xlsx,test.xlsx,stimuli/Test1.png,stimuli/Test2.png,stimuli/Social4.png,stimuli/Social3.png,stimuli/Nonsocial4.png,stimuli/Nonsocial3.png,stimuli/Social2.png,stimuli/Social1.png,stimuli/Nonsocial2.png,stimuli/Nonsocial1.png,"(0.7, 0.5)",cs_neg_ns,"(-0.7, -0.5)",cs_pos_ns_new,0,0,0,0,,,,,0,37,37,27,,513.6652371999808,ä,correct,0.9290112000890076,,48,D,2024-05-22_13h07.31.056,gca_discrimination2,2022.2.4,144.04468846929586,
positions.xlsx,stimuli.xlsx,test.xlsx,stimuli/Test1.png,stimuli/Test2.png,stimuli/Social4.png,stimuli/Social3.png,stimuli/Nonsocial4.png,stimuli/Nonsocial3.png,stimuli/Social2.png,stimuli/Social1.png,stimuli/Nonsocial2.png,stimuli/Nonsocial1.png,"(-0.7, 0.5)",cs_pos_ns,"(0.7, -0.5)",cs_pos_ns,0,0,0,0,,,,,0,38,38,94,,517.1303997000214,l,correct,0.640774599974975,,48,D,2024-05-22_13h07.31.056,gca_discrimination2,2022.2.4,144.04468846929586,
positions.xlsx,stimuli.xlsx,test.xlsx,stimuli/Test1.png,stimuli/Test2.png,stimuli/Social4.png,stimuli/Social3.png,stimuli/Nonsocial4.png,stimuli/Nonsocial3.png,stimuli/Social2.png,stimuli/Social1.png,stimuli/Nonsocial2.png,stimuli/Nonsocial1.png,"(0.7, 0.5)",cs_neg_s_new,"(-0.7, 0.5)",cs_neg_s_new,0,0,0,0,,,,,0,39,39,67,,520.3038639000151,l,correct,0.7316156000597402,,48,D,2024-05-22_13h07.31.056,gca_discrimination2,2022.2.4,144.04468846929586,
positions.xlsx,stimuli.xlsx,test.xlsx,stimuli/Test1.png,stimuli/Test2.png,stimuli/Social4.png,stimuli/Social3.png,stimuli/Nonsocial4.png,stimuli/Nonsocial3.png,stimuli/Social2.png,stimuli/Social1.png,stimuli/Nonsocial2.png,stimuli/Nonsocial1.png,"(0.7, -0.5)",cs_pos_s,"(0.7, 0.5)",cs_pos_s,0,0,0,0,,,,,0,40,40,66,,523.2065462999744,l,correct,0.5080894998973235,,48,D,2024-05-22_13h07.31.056,gca_discrimination2,2022.2.4,144.04468846929586,
positions.xlsx,stimuli.xlsx,test.xlsx,stimuli/Test1.png,stimuli/Test2.png,stimuli/Social4.png,stimuli/Social3.png,stimuli/Nonsocial4.png,stimuli/Nonsocial3.png,stimuli/Social2.png,stimuli/Social1.png,stimuli/Nonsocial2.png,stimuli/Nonsocial1.png,"(-0.7, -0.5)",cs_pos_ns,"(0.7, -0.5)",cs_pos_ns_new,0,0,0,0,,,,,0,41,41,46,,525.6994416000089,l,wrong,0.8554169000126421,,48,D,2024-05-22_13h07.31.056,gca_discrimination2,2022.2.4,144.04468846929586,
positions.xlsx,stimuli.xlsx,test.xlsx,stimuli/Test1.png,stimuli/Test2.png,stimuli/Social4.png,stimuli/Social3.png,stimuli/Nonsocial4.png,stimuli/Nonsocial3.png,stimuli/Social2.png,stimuli/Social1.png,stimuli/Nonsocial2.png,stimuli/Nonsocial1.png,"(0.7, 0.5)",cs_neg_s_new,"(-0.7, 0.5)",cs_pos_s,0,0,0,0,,,,,0,42,42,14,,528.4701602000277,l,wrong,1.1475412000436336,,48,D,2024-05-22_13h07.31.056,gca_discrimination2,2022.2.4,144.04468846929586,
positions.xlsx,stimuli.xlsx,test.xlsx,stimuli/Test1.png,stimuli/Test2.png,stimuli/Social4.png,stimuli/Social3.png,stimuli/Nonsocial4.png,stimuli/Nonsocial3.png,stimuli/Social2.png,stimuli/Social1.png,stimuli/Nonsocial2.png,stimuli/Nonsocial1.png,"(0.7, 0.5)",cs_neg_s,"(-0.7, 0.5)",cs_neg_s,0,0,0,0,,,,,0,43,43,51,,532.1436212999979,l,correct,0.7229475000640377,,48,D,2024-05-22_13h07.31.056,gca_discrimination2,2022.2.4,144.04468846929586,
positions.xlsx,stimuli.xlsx,test.xlsx,stimuli/Test1.png,stimuli/Test2.png,stimuli/Social4.png,stimuli/Social3.png,stimuli/Nonsocial4.png,stimuli/Nonsocial3.png,stimuli/Social2.png,stimuli/Social1.png,stimuli/Nonsocial2.png,stimuli/Nonsocial1.png,"(-0.7, 0.5)",cs_neg_ns_new,"(0.7, -0.5)",cs_neg_ns,0,0,0,0,,,,,0,44,44,39,,535.3657463999698,ä,correct,0.813776099937968,,48,D,2024-05-22_13h07.31.056,gca_discrimination2,2022.2.4,144.04468846929586,
positions.xlsx,stimuli.xlsx,test.xlsx,stimuli/Test1.png,stimuli/Test2.png,stimuli/Social4.png,stimuli/Social3.png,stimuli/Nonsocial4.png,stimuli/Nonsocial3.png,stimuli/Social2.png,stimuli/Social1.png,stimuli/Nonsocial2.png,stimuli/Nonsocial1.png,"(-0.7, -0.5)",cs_neg_ns_new,"(0.7, -0.5)",cs_neg_ns_new,0,0,0,0,,,,,0,45,45,72,,538.643413099926,ä,wrong,0.9516638999339193,,48,D,2024-05-22_13h07.31.056,gca_discrimination2,2022.2.4,144.04468846929586,
positions.xlsx,stimuli.xlsx,test.xlsx,stimuli/Test1.png,stimuli/Test2.png,stimuli/Social4.png,stimuli/Social3.png,stimuli/Nonsocial4.png,stimuli/Nonsocial3.png,stimuli/Social2.png,stimuli/Social1.png,stimuli/Nonsocial2.png,stimuli/Nonsocial1.png,"(0.7, 0.5)",cs_pos_ns_new,"(-0.7, 0.5)",cs_neg_ns_new,0,0,0,0,,,,,0,46,46,36,,542.0182694999967,ä,correct,1.1929186000488698,,48,D,2024-05-22_13h07.31.056,gca_discrimination2,2022.2.4,144.04468846929586,
positions.xlsx,stimuli.xlsx,test.xlsx,stimuli/Test1.png,stimuli/Test2.png,stimuli/Social4.png,stimuli/Social3.png,stimuli/Nonsocial4.png,stimuli/Nonsocial3.png,stimuli/Social2.png,stimuli/Social1.png,stimuli/Nonsocial2.png,stimuli/Nonsocial1.png,"(0.7, -0.5)",cs_pos_ns_new,"(-0.7, -0.5)",cs_pos_ns_new,0,0,0,0,,,,,0,47,47,77,,545.7333822000073,l,correct,0.42226150003261864,,48,D,2024-05-22_13h07.31.056,gca_discrimination2,2022.2.4,144.04468846929586,
positions.xlsx,stimuli.xlsx,test.xlsx,stimuli/Test1.png,stimuli/Test2.png,stimuli/Social4.png,stimuli/Social3.png,stimuli/Nonsocial4.png,stimuli/Nonsocial3.png,stimuli/Social2.png,stimuli/Social1.png,stimuli/Nonsocial2.png,stimuli/Nonsocial1.png,"(0.7, 0.5)",cs_pos_ns_new,"(-0.7, -0.5)",cs_neg_ns_new,0,0,0,0,,,,,0,48,48,32,,548.9346535999794,ä,correct,0.787488600006327,,48,D,2024-05-22_13h07.31.056,gca_discrimination2,2022.2.4,144.04468846929586,
positions.xlsx,stimuli.xlsx,test.xlsx,stimuli/Test1.png,stimuli/Test2.png,stimuli/Social4.png,stimuli/Social3.png,stimuli/Nonsocial4.png,stimuli/Nonsocial3.png,stimuli/Social2.png,stimuli/Social1.png,stimuli/Nonsocial2.png,stimuli/Nonsocial1.png,"(-0.7, 0.5)",cs_neg_ns_new,"(-0.7, -0.5)",cs_neg_ns_new,0,0,0,0,,,,,0,49,49,79,,552.4206179999746,l,correct,0.6695188001031056,,48,D,2024-05-22_13h07.31.056,gca_discrimination2,2022.2.4,144.04468846929586,
positions.xlsx,stimuli.xlsx,test.xlsx,stimuli/Test1.png,stimuli/Test2.png,stimuli/Social4.png,stimuli/Social3.png,stimuli/Nonsocial4.png,stimuli/Nonsocial3.png,stimuli/Social2.png,stimuli/Social1.png,stimuli/Nonsocial2.png,stimuli/Nonsocial1.png,"(0.7, 0.5)",cs_pos_s,"(-0.7, -0.5)",cs_pos_s,0,0,0,0,,,,,0,50,50,50,,555.3441240999382,ä,wrong,0.6591943999519572,,48,D,2024-05-22_13h07.31.056,gca_discrimination2,2022.2.4,144.04468846929586,
positions.xlsx,stimuli.xlsx,test.xlsx,stimuli/Test1.png,stimuli/Test2.png,stimuli/Social4.png,stimuli/Social3.png,stimuli/Nonsocial4.png,stimuli/Nonsocial3.png,stimuli/Social2.png,stimuli/Social1.png,stimuli/Nonsocial2.png,stimuli/Nonsocial1.png,"(0.7, -0.5)",cs_neg_ns_new,"(-0.7, -0.5)",cs_neg_ns,0,0,0,0,,,,,0,51,51,45,,558.3926040999359,ä,correct,0.7619513999670744,,48,D,2024-05-22_13h07.31.056,gca_discrimination2,2022.2.4,144.04468846929586,
positions.xlsx,stimuli.xlsx,test.xlsx,stimuli/Test1.png,stimuli/Test2.png,stimuli/Social4.png,stimuli/Social3.png,stimuli/Nonsocial4.png,stimuli/Nonsocial3.png,stimuli/Social2.png,stimuli/Social1.png,stimuli/Nonsocial2.png,stimuli/Nonsocial1.png,"(-0.7, 0.5)",cs_pos_ns_new,"(-0.7, -0.5)",cs_neg_ns,0,0,0,0,,,,,0,52,52,37,,561.302208499983,l,wrong,0.7729414000641555,,48,D,2024-05-22_13h07.31.056,gca_discrimination2,2022.2.4,144.04468846929586,
positions.xlsx,stimuli.xlsx,test.xlsx,stimuli/Test1.png,stimuli/Test2.png,stimuli/Social4.png,stimuli/Social3.png,stimuli/Nonsocial4.png,stimuli/Nonsocial3.png,stimuli/Social2.png,stimuli/Social1.png,stimuli/Nonsocial2.png,stimuli/Nonsocial1.png,"(-0.7, 0.5)",cs_pos_s_new,"(-0.7, -0.5)",cs_neg_s_new,0,0,0,0,,,,,0,53,53,18,,564.4201381999301,ä,correct,0.8624461999861524,,48,D,2024-05-22_13h07.31.056,gca_discrimination2,2022.2.4,144.04468846929586,
positions.xlsx,stimuli.xlsx,test.xlsx,stimuli/Test1.png,stimuli/Test2.png,stimuli/Social4.png,stimuli/Social3.png,stimuli/Nonsocial4.png,stimuli/Nonsocial3.png,stimuli/Social2.png,stimuli/Social1.png,stimuli/Nonsocial2.png,stimuli/Nonsocial1.png,"(0.7, -0.5)",cs_pos_s,"(-0.7, -0.5)",cs_neg_s_new,0,0,0,0,,,,,0,54,54,20,,567.9894620999694,l,wrong,0.7569131999043748,,48,D,2024-05-22_13h07.31.056,gca_discrimination2,2022.2.4,144.04468846929586,
positions.xlsx,stimuli.xlsx,test.xlsx,stimuli/Test1.png,stimuli/Test2.png,stimuli/Social4.png,stimuli/Social3.png,stimuli/Nonsocial4.png,stimuli/Nonsocial3.png,stimuli/Social2.png,stimuli/Social1.png,stimuli/Nonsocial2.png,stimuli/Nonsocial1.png,"(-0.7, -0.5)",cs_pos_ns_new,"(0.7, -0.5)",cs_pos_ns_new,0,0,0,0,,,,,0,55,55,81,,570.6976201999933,ä,wrong,1.2326044000219554,,48,D,2024-05-22_13h07.31.056,gca_discrimination2,2022.2.4,144.04468846929586,
positions.xlsx,stimuli.xlsx,test.xlsx,stimuli/Test1.png,stimuli/Test2.png,stimuli/Social4.png,stimuli/Social3.png,stimuli/Nonsocial4.png,stimuli/Nonsocial3.png,stimuli/Social2.png,stimuli/Social1.png,stimuli/Nonsocial2.png,stimuli/Nonsocial1.png,"(-0.7, 0.5)",cs_neg_ns_new,"(0.7, 0.5)",cs_neg_ns,0,0,0,0,,,,,0,56,56,24,,574.35721009993,l,wrong,1.3415019999956712,,48,D,2024-05-22_13h07.31.056,gca_discrimination2,2022.2.4,144.04468846929586,
positions.xlsx,stimuli.xlsx,test.xlsx,stimuli/Test1.png,stimuli/Test2.png,stimuli/Social4.png,stimuli/Social3.png,stimuli/Nonsocial4.png,stimuli/Nonsocial3.png,stimuli/Social2.png,stimuli/Social1.png,stimuli/Nonsocial2.png,stimuli/Nonsocial1.png,"(0.7, 0.5)",cs_neg_s,"(-0.7, -0.5)",cs_pos_s_new,0,0,0,0,,,,,0,57,57,22,,577.7181807999732,ä,correct,0.5006177999312058,,48,D,2024-05-22_13h07.31.056,gca_discrimination2,2022.2.4,144.04468846929586,
positions.xlsx,stimuli.xlsx,test.xlsx,stimuli/Test1.png,stimuli/Test2.png,stimuli/Social4.png,stimuli/Social3.png,stimuli/Nonsocial4.png,stimuli/Nonsocial3.png,stimuli/Social2.png,stimuli/Social1.png,stimuli/Nonsocial2.png,stimuli/Nonsocial1.png,"(0.7, -0.5)",cs_neg_s_new,"(0.7, 0.5)",cs_neg_s,0,0,0,0,,,,,0,58,58,23,,580.5305614999961,ä,correct,0.6078543000621721,,48,D,2024-05-22_13h07.31.056,gca_discrimination2,2022.2.4,144.04468846929586,
positions.xlsx,stimuli.xlsx,test.xlsx,stimuli/Test1.png,stimuli/Test2.png,stimuli/Social4.png,stimuli/Social3.png,stimuli/Nonsocial4.png,stimuli/Nonsocial3.png,stimuli/Social2.png,stimuli/Social1.png,stimuli/Nonsocial2.png,stimuli/Nonsocial1.png,"(0.7, 0.5)",cs_pos_ns,"(-0.7, -0.5)",cs_pos_ns,0,0,0,0,,,,,0,59,59,78,,583.9471050000284,l,correct,0.4625196000561118,,48,D,2024-05-22_13h07.31.056,gca_discrimination2,2022.2.4,144.04468846929586,
positions.xlsx,stimuli.xlsx,test.xlsx,stimuli/Test1.png,stimuli/Test2.png,stimuli/Social4.png,stimuli/Social3.png,stimuli/Nonsocial4.png,stimuli/Nonsocial3.png,stimuli/Social2.png,stimuli/Social1.png,stimuli/Nonsocial2.png,stimuli/Nonsocial1.png,"(-0.7, -0.5)",cs_neg_ns,"(-0.7, 0.5)",cs_neg_ns,0,0,0,0,,,,,0,60,60,95,,586.6970001999289,l,correct,0.561488899984397,,48,D,2024-05-22_13h07.31.056,gca_discrimination2,2022.2.4,144.04468846929586,
positions.xlsx,stimuli.xlsx,test.xlsx,stimuli/Test1.png,stimuli/Test2.png,stimuli/Social4.png,stimuli/Social3.png,stimuli/Nonsocial4.png,stimuli/Nonsocial3.png,stimuli/Social2.png,stimuli/Social1.png,stimuli/Nonsocial2.png,stimuli/Nonsocial1.png,"(0.7, -0.5)",cs_neg_ns,"(-0.7, 0.5)",cs_neg_ns,0,0,0,0,,,,,0,61,61,87,,589.8218752000248,l,correct,1.5566003000130877,,48,D,2024-05-22_13h07.31.056,gca_discrimination2,2022.2.4,144.04468846929586,
positions.xlsx,stimuli.xlsx,test.xlsx,stimuli/Test1.png,stimuli/Test2.png,stimuli/Social4.png,stimuli/Social3.png,stimuli/Nonsocial4.png,stimuli/Nonsocial3.png,stimuli/Social2.png,stimuli/Social1.png,stimuli/Nonsocial2.png,stimuli/Nonsocial1.png,"(0.7, -0.5)",cs_pos_ns,"(-0.7, 0.5)",cs_pos_ns,0,0,0,0,,,,,0,62,62,84,,593.6550145000219,l,correct,0.7632336000679061,,48,D,2024-05-22_13h07.31.056,gca_discrimination2,2022.2.4,144.04468846929586,
positions.xlsx,stimuli.xlsx,test.xlsx,stimuli/Test1.png,stimuli/Test2.png,stimuli/Social4.png,stimuli/Social3.png,stimuli/Nonsocial4.png,stimuli/Nonsocial3.png,stimuli/Social2.png,stimuli/Social1.png,stimuli/Nonsocial2.png,stimuli/Nonsocial1.png,"(0.7, -0.5)",cs_neg_ns_new,"(-0.7, -0.5)",cs_pos_ns,0,0,0,0,,,,,0,63,63,34,,596.5160169999581,ä,correct,1.030402599950321,,48,D,2024-05-22_13h07.31.056,gca_discrimination2,2022.2.4,144.04468846929586,
positions.xlsx,stimuli.xlsx,test.xlsx,stimuli/Test1.png,stimuli/Test2.png,stimuli/Social4.png,stimuli/Social3.png,stimuli/Nonsocial4.png,stimuli/Nonsocial3.png,stimuli/Social2.png,stimuli/Social1.png,stimuli/Nonsocial2.png,stimuli/Nonsocial1.png,"(-0.7, -0.5)",cs_pos_s,"(0.7, -0.5)",cs_pos_s,0,0,0,0,,,,,0,64,64,59,,599.8492365999846,l,correct,0.7535681000445038,,48,D,2024-05-22_13h07.31.056,gca_discrimination2,2022.2.4,144.04468846929586,
positions.xlsx,stimuli.xlsx,test.xlsx,stimuli/Test1.png,stimuli/Test2.png,stimuli/Social4.png,stimuli/Social3.png,stimuli/Nonsocial4.png,stimuli/Nonsocial3.png,stimuli/Social2.png,stimuli/Social1.png,stimuli/Nonsocial2.png,stimuli/Nonsocial1.png,"(-0.7, 0.5)",cs_neg_ns,"(-0.7, -0.5)",cs_neg_ns_new,0,0,0,0,,,,,0,65,65,42,,603.2935182999354,ä,correct,0.48478589998558164,,48,D,2024-05-22_13h07.31.056,gca_discrimination2,2022.2.4,144.04468846929586,
positions.xlsx,stimuli.xlsx,test.xlsx,stimuli/Test1.png,stimuli/Test2.png,stimuli/Social4.png,stimuli/Social3.png,stimuli/Nonsocial4.png,stimuli/Nonsocial3.png,stimuli/Social2.png,stimuli/Social1.png,stimuli/Nonsocial2.png,stimuli/Nonsocial1.png,"(-0.7, -0.5)",cs_neg_s_new,"(0.7, 0.5)",cs_neg_s_new,0,0,0,0,,,,,0,66,66,60,,606.2795108000282,l,correct,0.5551137999864295,,48,D,2024-05-22_13h07.31.056,gca_discrimination2,2022.2.4,144.04468846929586,
positions.xlsx,stimuli.xlsx,test.xlsx,stimuli/Test1.png,stimuli/Test2.png,stimuli/Social4.png,stimuli/Social3.png,stimuli/Nonsocial4.png,stimuli/Nonsocial3.png,stimuli/Social2.png,stimuli/Social1.png,stimuli/Nonsocial2.png,stimuli/Nonsocial1.png,"(-0.7, -0.5)",cs_neg_s_new,"(-0.7, 0.5)",cs_neg_s_new,0,0,0,0,,,,,0,67,67,63,,609.4182661999948,l,correct,0.7913642000639811,,48,D,2024-05-22_13h07.31.056,gca_discrimination2,2022.2.4,144.04468846929586,
positions.xlsx,stimuli.xlsx,test.xlsx,stimuli/Test1.png,stimuli/Test2.png,stimuli/Social4.png,stimuli/Social3.png,stimuli/Nonsocial4.png,stimuli/Nonsocial3.png,stimuli/Social2.png,stimuli/Social1.png,stimuli/Nonsocial2.png,stimuli/Nonsocial1.png,"(-0.7, 0.5)",cs_pos_ns_new,"(0.7, -0.5)",cs_pos_ns_new,0,0,0,0,,,,,0,68,68,90,,612.9806156000122,l,correct,0.5653084999648854,,48,D,2024-05-22_13h07.31.056,gca_discrimination2,2022.2.4,144.04468846929586,
positions.xlsx,stimuli.xlsx,test.xlsx,stimuli/Test1.png,stimuli/Test2.png,stimuli/Social4.png,stimuli/Social3.png,stimuli/Nonsocial4.png,stimuli/Nonsocial3.png,stimuli/Social2.png,stimuli/Social1.png,stimuli/Nonsocial2.png,stimuli/Nonsocial1.png,"(-0.7, 0.5)",cs_pos_ns,"(-0.7, -0.5)",cs_pos_ns,0,0,0,0,,,,,0,69,69,92,,615.9110595999518,l,correct,0.5228032999439165,,48,D,2024-05-22_13h07.31.056,gca_discrimination2,2022.2.4,144.04468846929586,
positions.xlsx,stimuli.xlsx,test.xlsx,stimuli/Test1.png,stimuli/Test2.png,stimuli/Social4.png,stimuli/Social3.png,stimuli/Nonsocial4.png,stimuli/Nonsocial3.png,stimuli/Social2.png,stimuli/Social1.png,stimuli/Nonsocial2.png,stimuli/Nonsocial1.png,"(0.7, -0.5)",cs_neg_ns_new,"(0.7, 0.5)",cs_neg_ns_new,0,0,0,0,,,,,0,70,70,82,,619.1539867999963,l,correct,0.7375066000968218,,48,D,2024-05-22_13h07.31.056,gca_discrimination2,2022.2.4,144.04468846929586,
positions.xlsx,stimuli.xlsx,test.xlsx,stimuli/Test1.png,stimuli/Test2.png,stimuli/Social4.png,stimuli/Social3.png,stimuli/Nonsocial4.png,stimuli/Nonsocial3.png,stimuli/Social2.png,stimuli/Social1.png,stimuli/Nonsocial2.png,stimuli/Nonsocial1.png,"(0.7, -0.5)",cs_neg_s,"(0.7, 0.5)",cs_neg_s,0,0,0,0,,,,,0,71,71,54,,622.6121606000233,l,correct,0.4783594000618905,,48,D,2024-05-22_13h07.31.056,gca_discrimination2,2022.2.4,144.04468846929586,
positions.xlsx,stimuli.xlsx,test.xlsx,stimuli/Test1.png,stimuli/Test2.png,stimuli/Social4.png,stimuli/Social3.png,stimuli/Nonsocial4.png,stimuli/Nonsocial3.png,stimuli/Social2.png,stimuli/Social1.png,stimuli/Nonsocial2.png,stimuli/Nonsocial1.png,"(-0.7, 0.5)",cs_pos_ns,"(-0.7, -0.5)",cs_neg_ns,0,0,0,0,,,,,0,72,72,26,,625.4315039999783,ä,correct,1.1956287000793964,,48,D,2024-05-22_13h07.31.056,gca_discrimination2,2022.2.4,144.04468846929586,
positions.xlsx,stimuli.xlsx,test.xlsx,stimuli/Test1.png,stimuli/Test2.png,stimuli/Social4.png,stimuli/Social3.png,stimuli/Nonsocial4.png,stimuli/Nonsocial3.png,stimuli/Social2.png,stimuli/Social1.png,stimuli/Nonsocial2.png,stimuli/Nonsocial1.png,"(-0.7, 0.5)",cs_pos_ns_new,"(0.7, 0.5)",cs_pos_ns_new,0,0,0,0,,,,,0,73,73,85,,628.8619167000288,l,correct,1.1161576000740752,,48,D,2024-05-22_13h07.31.056,gca_discrimination2,2022.2.4,144.04468846929586,
positions.xlsx,stimuli.xlsx,test.xlsx,stimuli/Test1.png,stimuli/Test2.png,stimuli/Social4.png,stimuli/Social3.png,stimuli/Nonsocial4.png,stimuli/Nonsocial3.png,stimuli/Social2.png,stimuli/Social1.png,stimuli/Nonsocial2.png,stimuli/Nonsocial1.png,"(-0.7, 0.5)",cs_neg_ns,"(0.7, -0.5)",cs_neg_ns,0,0,0,0,,,,,0,74,74,76,,632.4590100999922,l,correct,0.5031615000916645,,48,D,2024-05-22_13h07.31.056,gca_discrimination2,2022.2.4,144.04468846929586,
positions.xlsx,stimuli.xlsx,test.xlsx,stimuli/Test1.png,stimuli/Test2.png,stimuli/Social4.png,stimuli/Social3.png,stimuli/Nonsocial4.png,stimuli/Nonsocial3.png,stimuli/Social2.png,stimuli/Social1.png,stimuli/Nonsocial2.png,stimuli/Nonsocial1.png,"(-0.7, -0.5)",cs_neg_ns,"(0.7, -0.5)",cs_pos_ns,0,0,0,0,,,,,0,75,75,38,,635.4171872999286,ä,correct,0.5617073000175878,,48,D,2024-05-22_13h07.31.056,gca_discrimination2,2022.2.4,144.04468846929586,
positions.xlsx,stimuli.xlsx,test.xlsx,stimuli/Test1.png,stimuli/Test2.png,stimuli/Social4.png,stimuli/Social3.png,stimuli/Nonsocial4.png,stimuli/Nonsocial3.png,stimuli/Social2.png,stimuli/Social1.png,stimuli/Nonsocial2.png,stimuli/Nonsocial1.png,"(0.7, -0.5)",cs_pos_ns,"(0.7, 0.5)",cs_pos_ns_new,0,0,0,0,,,,,0,76,76,44,,637.8199119999772,ä,correct,0.8307946000713855,,48,D,2024-05-22_13h07.31.056,gca_discrimination2,2022.2.4,144.04468846929586,
positions.xlsx,stimuli.xlsx,test.xlsx,stimuli/Test1.png,stimuli/Test2.png,stimuli/Social4.png,stimuli/Social3.png,stimuli/Nonsocial4.png,stimuli/Nonsocial3.png,stimuli/Social2.png,stimuli/Social1.png,stimuli/Nonsocial2.png,stimuli/Nonsocial1.png,"(0.7, -0.5)",cs_pos_ns,"(0.7, 0.5)",cs_pos_ns,0,0,0,0,,,,,0,77,77,74,,641.0072559999535,l,correct,1.0108253000071272,,48,D,2024-05-22_13h07.31.056,gca_discrimination2,2022.2.4,144.04468846929586,
positions.xlsx,stimuli.xlsx,test.xlsx,stimuli/Test1.png,stimuli/Test2.png,stimuli/Social4.png,stimuli/Social3.png,stimuli/Nonsocial4.png,stimuli/Nonsocial3.png,stimuli/Social2.png,stimuli/Social1.png,stimuli/Nonsocial2.png,stimuli/Nonsocial1.png,"(-0.7, -0.5)",cs_neg_s,"(-0.7, 0.5)",cs_neg_s,0,0,0,0,,,,,0,78,78,56,,644.7709677999374,l,correct,0.7349716000026092,,48,D,2024-05-22_13h07.31.056,gca_discrimination2,2022.2.4,144.04468846929586,
positions.xlsx,stimuli.xlsx,test.xlsx,stimuli/Test1.png,stimuli/Test2.png,stimuli/Social4.png,stimuli/Social3.png,stimuli/Nonsocial4.png,stimuli/Nonsocial3.png,stimuli/Social2.png,stimuli/Social1.png,stimuli/Nonsocial2.png,stimuli/Nonsocial1.png,"(0.7, -0.5)",cs_neg_ns,"(-0.7, -0.5)",cs_pos_ns,0,0,0,0,,,,,0,79,79,41,,648.1875225999393,ä,correct,0.6383417999604717,,48,D,2024-05-22_13h07.31.056,gca_discrimination2,2022.2.4,144.04468846929586,
positions.xlsx,stimuli.xlsx,test.xlsx,stimuli/Test1.png,stimuli/Test2.png,stimuli/Social4.png,stimuli/Social3.png,stimuli/Nonsocial4.png,stimuli/Nonsocial3.png,stimuli/Social2.png,stimuli/Social1.png,stimuli/Nonsocial2.png,stimuli/Nonsocial1.png,"(0.7, 0.5)",cs_neg_s_new,"(-0.7, -0.5)",cs_neg_s_new,0,0,0,0,,,,,0,80,80,64,,650.7290839999914,l,correct,0.6489398000994697,,48,D,2024-05-22_13h07.31.056,gca_discrimination2,2022.2.4,144.04468846929586,
positions.xlsx,stimuli.xlsx,test.xlsx,stimuli/Test1.png,stimuli/Test2.png,stimuli/Social4.png,stimuli/Social3.png,stimuli/Nonsocial4.png,stimuli/Nonsocial3.png,stimuli/Social2.png,stimuli/Social1.png,stimuli/Nonsocial2.png,stimuli/Nonsocial1.png,"(-0.7, 0.5)",cs_pos_ns,"(0.7, -0.5)",cs_neg_ns_new,0,0,0,0,,,,,0,81,81,35,,654.013693899964,ä,correct,0.5638376999413595,,48,D,2024-05-22_13h07.31.056,gca_discrimination2,2022.2.4,144.04468846929586,
positions.xlsx,stimuli.xlsx,test.xlsx,stimuli/Test1.png,stimuli/Test2.png,stimuli/Social4.png,stimuli/Social3.png,stimuli/Nonsocial4.png,stimuli/Nonsocial3.png,stimuli/Social2.png,stimuli/Social1.png,stimuli/Nonsocial2.png,stimuli/Nonsocial1.png,"(-0.7, 0.5)",cs_neg_s_new,"(0.7, -0.5)",cs_neg_s,0,0,0,0,,,,,0,82,82,11,,656.8399378999602,ä,correct,0.5459059999557212,,48,D,2024-05-22_13h07.31.056,gca_discrimination2,2022.2.4,144.04468846929586,
positions.xlsx,stimuli.xlsx,test.xlsx,stimuli/Test1.png,stimuli/Test2.png,stimuli/Social4.png,stimuli/Social3.png,stimuli/Nonsocial4.png,stimuli/Nonsocial3.png,stimuli/Social2.png,stimuli/Social1.png,stimuli/Nonsocial2.png,stimuli/Nonsocial1.png,"(0.7, -0.5)",cs_pos_s,"(-0.7, 0.5)",cs_neg_s,0,0,0,0,,,,,0,83,83,10,,659.4023551000282,ä,correct,0.5273998000193387,,48,D,2024-05-22_13h07.31.056,gca_discrimination2,2022.2.4,144.04468846929586,
positions.xlsx,stimuli.xlsx,test.xlsx,stimuli/Test1.png,stimuli/Test2.png,stimuli/Social4.png,stimuli/Social3.png,stimuli/Nonsocial4.png,stimuli/Nonsocial3.png,stimuli/Social2.png,stimuli/Social1.png,stimuli/Nonsocial2.png,stimuli/Nonsocial1.png,"(0.7, -0.5)",cs_pos_s_new,"(-0.7, 0.5)",cs_pos_s,0,0,0,0,,,,,0,84,84,21,,661.9716886000242,ä,correct,0.6869562000501901,,48,D,2024-05-22_13h07.31.056,gca_discrimination2,2022.2.4,144.04468846929586,
positions.xlsx,stimuli.xlsx,test.xlsx,stimuli/Test1.png,stimuli/Test2.png,stimuli/Social4.png,stimuli/Social3.png,stimuli/Nonsocial4.png,stimuli/Nonsocial3.png,stimuli/Social2.png,stimuli/Social1.png,stimuli/Nonsocial2.png,stimuli/Nonsocial1.png,"(-0.7, -0.5)",cs_pos_ns,"(-0.7, 0.5)",cs_pos_ns,0,0,0,0,,,,,0,85,85,91,,665.2701426999411,l,correct,0.4916994000086561,,48,D,2024-05-22_13h07.31.056,gca_discrimination2,2022.2.4,144.04468846929586,
positions.xlsx,stimuli.xlsx,test.xlsx,stimuli/Test1.png,stimuli/Test2.png,stimuli/Social4.png,stimuli/Social3.png,stimuli/Nonsocial4.png,stimuli/Nonsocial3.png,stimuli/Social2.png,stimuli/Social1.png,stimuli/Nonsocial2.png,stimuli/Nonsocial1.png,"(0.7, -0.5)",cs_neg_s_new,"(-0.7, -0.5)",cs_neg_s,0,0,0,0,,,,,0,86,86,0,,668.2908638999797,ä,correct,0.4873782000504434,,48,D,2024-05-22_13h07.31.056,gca_discrimination2,2022.2.4,144.04468846929586,
positions.xlsx,stimuli.xlsx,test.xlsx,stimuli/Test1.png,stimuli/Test2.png,stimuli/Social4.png,stimuli/Social3.png,stimuli/Nonsocial4.png,stimuli/Nonsocial3.png,stimuli/Social2.png,stimuli/Social1.png,stimuli/Nonsocial2.png,stimuli/Nonsocial1.png,"(-0.7, 0.5)",cs_neg_s,"(-0.7, -0.5)",cs_neg_s,0,0,0,0,,,,,0,87,87,61,,671.353234799928,l,correct,0.408969399984926,,48,D,2024-05-22_13h07.31.056,gca_discrimination2,2022.2.4,144.04468846929586,
positions.xlsx,stimuli.xlsx,test.xlsx,stimuli/Test1.png,stimuli/Test2.png,stimuli/Social4.png,stimuli/Social3.png,stimuli/Nonsocial4.png,stimuli/Nonsocial3.png,stimuli/Social2.png,stimuli/Social1.png,stimuli/Nonsocial2.png,stimuli/Nonsocial1.png,"(-0.7, 0.5)",cs_neg_ns,"(-0.7, -0.5)",cs_neg_ns,0,0,0,0,,,,,0,88,88,93,,673.8739041999215,l,correct,1.1522503000451252,,48,D,2024-05-22_13h07.31.056,gca_discrimination2,2022.2.4,144.04468846929586,
positions.xlsx,stimuli.xlsx,test.xlsx,stimuli/Test1.png,stimuli/Test2.png,stimuli/Social4.png,stimuli/Social3.png,stimuli/Nonsocial4.png,stimuli/Nonsocial3.png,stimuli/Social2.png,stimuli/Social1.png,stimuli/Nonsocial2.png,stimuli/Nonsocial1.png,"(0.7, 0.5)",cs_pos_ns,"(-0.7, 0.5)",cs_pos_ns,0,0,0,0,,,,,0,89,89,86,,677.8182520000264,ä,wrong,1.1992515999590978,,48,D,2024-05-22_13h07.31.056,gca_discrimination2,2022.2.4,144.04468846929586,
positions.xlsx,stimuli.xlsx,test.xlsx,stimuli/Test1.png,stimuli/Test2.png,stimuli/Social4.png,stimuli/Social3.png,stimuli/Nonsocial4.png,stimuli/Nonsocial3.png,stimuli/Social2.png,stimuli/Social1.png,stimuli/Nonsocial2.png,stimuli/Nonsocial1.png,"(-0.7, -0.5)",cs_pos_s_new,"(-0.7, 0.5)",cs_neg_s_new,0,0,0,0,,,,,0,90,90,13,,681.8042242999654,ä,correct,1.2468357998877764,,48,D,2024-05-22_13h07.31.056,gca_discrimination2,2022.2.4,144.04468846929586,
positions.xlsx,stimuli.xlsx,test.xlsx,stimuli/Test1.png,stimuli/Test2.png,stimuli/Social4.png,stimuli/Social3.png,stimuli/Nonsocial4.png,stimuli/Nonsocial3.png,stimuli/Social2.png,stimuli/Social1.png,stimuli/Nonsocial2.png,stimuli/Nonsocial1.png,"(-0.7, -0.5)",cs_neg_s,"(0.7, -0.5)",cs_neg_s,0,0,0,0,,,,,0,91,91,52,,685.2276739999652,l,correct,0.61401489994023,,48,D,2024-05-22_13h07.31.056,gca_discrimination2,2022.2.4,144.04468846929586,
positions.xlsx,stimuli.xlsx,test.xlsx,stimuli/Test1.png,stimuli/Test2.png,stimuli/Social4.png,stimuli/Social3.png,stimuli/Nonsocial4.png,stimuli/Nonsocial3.png,stimuli/Social2.png,stimuli/Social1.png,stimuli/Nonsocial2.png,stimuli/Nonsocial1.png,"(0.7, 0.5)",cs_pos_ns,"(0.7, -0.5)",cs_pos_ns,0,0,0,0,,,,,0,92,92,89,,688.2344679000089,l,correct,0.5518345000455156,,48,D,2024-05-22_13h07.31.056,gca_discrimination2,2022.2.4,144.04468846929586,
positions.xlsx,stimuli.xlsx,test.xlsx,stimuli/Test1.png,stimuli/Test2.png,stimuli/Social4.png,stimuli/Social3.png,stimuli/Nonsocial4.png,stimuli/Nonsocial3.png,stimuli/Social2.png,stimuli/Social1.png,stimuli/Nonsocial2.png,stimuli/Nonsocial1.png,"(-0.7, 0.5)",cs_neg_s,"(0.7, 0.5)",cs_neg_s,0,0,0,0,,,,,0,93,93,58,,691.0399344000034,l,correct,0.49836270010564476,,48,D,2024-05-22_13h07.31.056,gca_discrimination2,2022.2.4,144.04468846929586,
positions.xlsx,stimuli.xlsx,test.xlsx,stimuli/Test1.png,stimuli/Test2.png,stimuli/Social4.png,stimuli/Social3.png,stimuli/Nonsocial4.png,stimuli/Nonsocial3.png,stimuli/Social2.png,stimuli/Social1.png,stimuli/Nonsocial2.png,stimuli/Nonsocial1.png,"(-0.7, 0.5)",cs_pos_s_new,"(0.7, -0.5)",cs_neg_s,0,0,0,0,,,,,0,94,94,16,,693.7829002999933,ä,correct,0.6749001999851316,,48,D,2024-05-22_13h07.31.056,gca_discrimination2,2022.2.4,144.04468846929586,
positions.xlsx,stimuli.xlsx,test.xlsx,stimuli/Test1.png,stimuli/Test2.png,stimuli/Social4.png,stimuli/Social3.png,stimuli/Nonsocial4.png,stimuli/Nonsocial3.png,stimuli/Social2.png,stimuli/Social1.png,stimuli/Nonsocial2.png,stimuli/Nonsocial1.png,"(-0.7, 0.5)",cs_neg_ns,"(0.7, 0.5)",cs_pos_ns,0,0,0,0,,,,,0,95,95,40,,696.5535997999832,ä,correct,0.5685514000942931,,48,D,2024-05-22_13h07.31.056,gca_discrimination2,2022.2.4,144.04468846929586,
