posFile,stimFile,testFile,test1,test2,cs_neg_s,cs_pos_s,cs_neg_ns,cs_pos_ns,cs_neg_s_new,cs_pos_s_new,cs_neg_ns_new,cs_pos_ns_new,position1,stim1,position2,stim2,blocks.thisRepN,blocks.thisTrialN,blocks.thisN,blocks.thisIndex,learning_trials.thisRepN,learning_trials.thisTrialN,learning_trials.thisN,learning_trials.thisIndex,trials.thisRepN,trials.thisTrialN,trials.thisN,trials.thisIndex,textStart.started,key.started,key.keys,correctness,key.rt,textStartTask.started,participant,group,date,expName,psychopyVersion,frameRate,
positions.xlsx,stimuli.xlsx,test.xlsx,stimuli/Test1.png,stimuli/Test2.png,stimuli/Social2.png,stimuli/Social1.png,stimuli/Nonsocial2.png,stimuli/Nonsocial1.png,stimuli/Social4.png,stimuli/Social3.png,stimuli/Nonsocial4.png,stimuli/Nonsocial3.png,"(-0.7, 0.5)",test2,"(-0.7, -0.5)",test2,0,0,0,0,0,0,0,6,,,,,302.9888903000392,335.7514264000347,None,no answer,,,49,B,2024-05-22_14h08.53.103,gca_discrimination2,2022.2.4,144.0204164360422,
positions.xlsx,stimuli.xlsx,test.xlsx,stimuli/Test1.png,stimuli/Test2.png,stimuli/Social2.png,stimuli/Social1.png,stimuli/Nonsocial2.png,stimuli/Nonsocial1.png,stimuli/Social4.png,stimuli/Social3.png,stimuli/Nonsocial4.png,stimuli/Nonsocial3.png,"(-0.7, 0.5)",test2,"(-0.7, -0.5)",test1,0,0,0,0,0,1,1,8,,,,,,342.2094951000763,None,no answer,,,49,B,2024-05-22_14h08.53.103,gca_discrimination2,2022.2.4,144.0204164360422,
positions.xlsx,stimuli.xlsx,test.xlsx,stimuli/Test1.png,stimuli/Test2.png,stimuli/Social2.png,stimuli/Social1.png,stimuli/Nonsocial2.png,stimuli/Nonsocial1.png,stimuli/Social4.png,stimuli/Social3.png,stimuli/Nonsocial4.png,stimuli/Nonsocial3.png,"(0.7, 0.5)",test2,"(-0.7, 0.5)",test2,0,0,0,0,0,2,2,3,,,,,,348.01482020004187,None,no answer,,,49,B,2024-05-22_14h08.53.103,gca_discrimination2,2022.2.4,144.0204164360422,
positions.xlsx,stimuli.xlsx,test.xlsx,stimuli/Test1.png,stimuli/Test2.png,stimuli/Social2.png,stimuli/Social1.png,stimuli/Nonsocial2.png,stimuli/Nonsocial1.png,stimuli/Social4.png,stimuli/Social3.png,stimuli/Nonsocial4.png,stimuli/Nonsocial3.png,"(0.7, -0.5)",test1,"(-0.7, -0.5)",test1,0,0,0,0,0,3,3,4,,,,,,354.23681130004115,None,no answer,,,49,B,2024-05-22_14h08.53.103,gca_discrimination2,2022.2.4,144.0204164360422,
positions.xlsx,stimuli.xlsx,test.xlsx,stimuli/Test1.png,stimuli/Test2.png,stimuli/Social2.png,stimuli/Social1.png,stimuli/Nonsocial2.png,stimuli/Nonsocial1.png,stimuli/Social4.png,stimuli/Social3.png,stimuli/Nonsocial4.png,stimuli/Nonsocial3.png,"(-0.7, 0.5)",test2,"(0.7, 0.5)",test1,0,0,0,0,0,4,4,2,,,,,,360.1879104000982,None,no answer,,,49,B,2024-05-22_14h08.53.103,gca_discrimination2,2022.2.4,144.0204164360422,
positions.xlsx,stimuli.xlsx,test.xlsx,stimuli/Test1.png,stimuli/Test2.png,stimuli/Social2.png,stimuli/Social1.png,stimuli/Nonsocial2.png,stimuli/Nonsocial1.png,stimuli/Social4.png,stimuli/Social3.png,stimuli/Nonsocial4.png,stimuli/Nonsocial3.png,"(0.7, -0.5)",test2,"(-0.7, 0.5)",test2,0,0,0,0,0,5,5,5,,,,,,366.41683230001945,None,no answer,,,49,B,2024-05-22_14h08.53.103,gca_discrimination2,2022.2.4,144.0204164360422,
positions.xlsx,stimuli.xlsx,test.xlsx,stimuli/Test1.png,stimuli/Test2.png,stimuli/Social2.png,stimuli/Social1.png,stimuli/Nonsocial2.png,stimuli/Nonsocial1.png,stimuli/Social4.png,stimuli/Social3.png,stimuli/Nonsocial4.png,stimuli/Nonsocial3.png,"(-0.7, -0.5)",test2,"(-0.7, 0.5)",test1,0,0,0,0,0,6,6,0,,,,,,372.263844500063,None,no answer,,,49,B,2024-05-22_14h08.53.103,gca_discrimination2,2022.2.4,144.0204164360422,
positions.xlsx,stimuli.xlsx,test.xlsx,stimuli/Test1.png,stimuli/Test2.png,stimuli/Social2.png,stimuli/Social1.png,stimuli/Nonsocial2.png,stimuli/Nonsocial1.png,stimuli/Social4.png,stimuli/Social3.png,stimuli/Nonsocial4.png,stimuli/Nonsocial3.png,"(0.7, 0.5)",test2,"(-0.7, -0.5)",test1,0,0,0,0,0,7,7,9,,,,,,378.138590900111,l,correct,0.8181820999598131,,49,B,2024-05-22_14h08.53.103,gca_discrimination2,2022.2.4,144.0204164360422,
positions.xlsx,stimuli.xlsx,test.xlsx,stimuli/Test1.png,stimuli/Test2.png,stimuli/Social2.png,stimuli/Social1.png,stimuli/Nonsocial2.png,stimuli/Nonsocial1.png,stimuli/Social4.png,stimuli/Social3.png,stimuli/Nonsocial4.png,stimuli/Nonsocial3.png,"(0.7, -0.5)",test1,"(-0.7, -0.5)",test2,0,0,0,0,0,8,8,1,,,,,,383.70088280003984,l,correct,0.44651479995809495,,49,B,2024-05-22_14h08.53.103,gca_discrimination2,2022.2.4,144.0204164360422,
positions.xlsx,stimuli.xlsx,test.xlsx,stimuli/Test1.png,stimuli/Test2.png,stimuli/Social2.png,stimuli/Social1.png,stimuli/Nonsocial2.png,stimuli/Nonsocial1.png,stimuli/Social4.png,stimuli/Social3.png,stimuli/Nonsocial4.png,stimuli/Nonsocial3.png,"(0.7, -0.5)",test1,"(-0.7, -0.5)",test2,0,0,0,0,0,9,9,7,,,,,,388.7076255000429,l,correct,0.5435231999726966,,49,B,2024-05-22_14h08.53.103,gca_discrimination2,2022.2.4,144.0204164360422,
positions.xlsx,stimuli.xlsx,test.xlsx,stimuli/Test1.png,stimuli/Test2.png,stimuli/Social2.png,stimuli/Social1.png,stimuli/Nonsocial2.png,stimuli/Nonsocial1.png,stimuli/Social4.png,stimuli/Social3.png,stimuli/Nonsocial4.png,stimuli/Nonsocial3.png,"(-0.7, 0.5)",cs_pos_s,"(0.7, 0.5)",cs_pos_s,0,0,0,0,,,,,0,0,0,64,,408.3040203000419,ä,correct,0.6999933999031782,391.6658258000389,49,B,2024-05-22_14h08.53.103,gca_discrimination2,2022.2.4,144.0204164360422,
positions.xlsx,stimuli.xlsx,test.xlsx,stimuli/Test1.png,stimuli/Test2.png,stimuli/Social2.png,stimuli/Social1.png,stimuli/Nonsocial2.png,stimuli/Nonsocial1.png,stimuli/Social4.png,stimuli/Social3.png,stimuli/Nonsocial4.png,stimuli/Nonsocial3.png,"(0.7, 0.5)",cs_pos_s_new,"(-0.7, 0.5)",cs_pos_s_new,0,0,0,0,,,,,0,1,1,65,,411.2483640999999,l,wrong,0.7627336999867111,,49,B,2024-05-22_14h08.53.103,gca_discrimination2,2022.2.4,144.0204164360422,
positions.xlsx,stimuli.xlsx,test.xlsx,stimuli/Test1.png,stimuli/Test2.png,stimuli/Social2.png,stimuli/Social1.png,stimuli/Nonsocial2.png,stimuli/Nonsocial1.png,stimuli/Social4.png,stimuli/Social3.png,stimuli/Nonsocial4.png,stimuli/Nonsocial3.png,"(0.7, -0.5)",cs_neg_s_new,"(-0.7, 0.5)",cs_neg_s_new,0,0,0,0,,,,,0,2,2,70,,414.53992030001245,ä,correct,1.4322876000078395,,49,B,2024-05-22_14h08.53.103,gca_discrimination2,2022.2.4,144.0204164360422,
positions.xlsx,stimuli.xlsx,test.xlsx,stimuli/Test1.png,stimuli/Test2.png,stimuli/Social2.png,stimuli/Social1.png,stimuli/Nonsocial2.png,stimuli/Nonsocial1.png,stimuli/Social4.png,stimuli/Social3.png,stimuli/Nonsocial4.png,stimuli/Nonsocial3.png,"(-0.7, 0.5)",cs_pos_ns_new,"(0.7, 0.5)",cs_neg_ns_new,0,0,0,0,,,,,0,3,3,29,,418.33834410004783,ä,wrong,0.6489530999679118,,49,B,2024-05-22_14h08.53.103,gca_discrimination2,2022.2.4,144.0204164360422,
positions.xlsx,stimuli.xlsx,test.xlsx,stimuli/Test1.png,stimuli/Test2.png,stimuli/Social2.png,stimuli/Social1.png,stimuli/Nonsocial2.png,stimuli/Nonsocial1.png,stimuli/Social4.png,stimuli/Social3.png,stimuli/Nonsocial4.png,stimuli/Nonsocial3.png,"(0.7, -0.5)",cs_pos_s,"(0.7, 0.5)",cs_neg_s_new,0,0,0,0,,,,,0,4,4,6,,421.39378550008405,ä,wrong,0.961623499984853,,49,B,2024-05-22_14h08.53.103,gca_discrimination2,2022.2.4,144.0204164360422,
positions.xlsx,stimuli.xlsx,test.xlsx,stimuli/Test1.png,stimuli/Test2.png,stimuli/Social2.png,stimuli/Social1.png,stimuli/Nonsocial2.png,stimuli/Nonsocial1.png,stimuli/Social4.png,stimuli/Social3.png,stimuli/Nonsocial4.png,stimuli/Nonsocial3.png,"(-0.7, -0.5)",cs_neg_ns_new,"(-0.7, 0.5)",cs_neg_ns_new,0,0,0,0,,,,,0,5,5,86,,424.59507430007216,l,wrong,0.9440838000737131,,49,B,2024-05-22_14h08.53.103,gca_discrimination2,2022.2.4,144.0204164360422,
positions.xlsx,stimuli.xlsx,test.xlsx,stimuli/Test1.png,stimuli/Test2.png,stimuli/Social2.png,stimuli/Social1.png,stimuli/Nonsocial2.png,stimuli/Nonsocial1.png,stimuli/Social4.png,stimuli/Social3.png,stimuli/Nonsocial4.png,stimuli/Nonsocial3.png,"(0.7, 0.5)",cs_neg_ns_new,"(0.7, -0.5)",cs_neg_ns_new,0,0,0,0,,,,,0,6,6,89,,427.37271900009364,None,no answer,,,49,B,2024-05-22_14h08.53.103,gca_discrimination2,2022.2.4,144.0204164360422,
positions.xlsx,stimuli.xlsx,test.xlsx,stimuli/Test1.png,stimuli/Test2.png,stimuli/Social2.png,stimuli/Social1.png,stimuli/Nonsocial2.png,stimuli/Nonsocial1.png,stimuli/Social4.png,stimuli/Social3.png,stimuli/Nonsocial4.png,stimuli/Nonsocial3.png,"(-0.7, 0.5)",cs_neg_ns,"(0.7, 0.5)",cs_neg_ns_new,0,0,0,0,,,,,0,7,7,37,,431.8308646000223,None,no answer,,,49,B,2024-05-22_14h08.53.103,gca_discrimination2,2022.2.4,144.0204164360422,
positions.xlsx,stimuli.xlsx,test.xlsx,stimuli/Test1.png,stimuli/Test2.png,stimuli/Social2.png,stimuli/Social1.png,stimuli/Nonsocial2.png,stimuli/Nonsocial1.png,stimuli/Social4.png,stimuli/Social3.png,stimuli/Nonsocial4.png,stimuli/Nonsocial3.png,"(-0.7, -0.5)",cs_neg_ns_new,"(0.7, 0.5)",cs_neg_ns_new,0,0,0,0,,,,,0,8,8,94,,436.03898860001937,None,no answer,,,49,B,2024-05-22_14h08.53.103,gca_discrimination2,2022.2.4,144.0204164360422,
positions.xlsx,stimuli.xlsx,test.xlsx,stimuli/Test1.png,stimuli/Test2.png,stimuli/Social2.png,stimuli/Social1.png,stimuli/Nonsocial2.png,stimuli/Nonsocial1.png,stimuli/Social4.png,stimuli/Social3.png,stimuli/Nonsocial4.png,stimuli/Nonsocial3.png,"(-0.7, -0.5)",cs_pos_s,"(0.7, 0.5)",cs_neg_s_new,0,0,0,0,,,,,0,9,9,8,,440.3166357000591,ä,wrong,1.007057899958454,,49,B,2024-05-22_14h08.53.103,gca_discrimination2,2022.2.4,144.0204164360422,
positions.xlsx,stimuli.xlsx,test.xlsx,stimuli/Test1.png,stimuli/Test2.png,stimuli/Social2.png,stimuli/Social1.png,stimuli/Nonsocial2.png,stimuli/Nonsocial1.png,stimuli/Social4.png,stimuli/Social3.png,stimuli/Nonsocial4.png,stimuli/Nonsocial3.png,"(0.7, 0.5)",cs_pos_ns_new,"(0.7, -0.5)",cs_pos_ns_new,0,0,0,0,,,,,0,10,10,72,,443.9414999000728,ä,correct,1.0701840000692755,,49,B,2024-05-22_14h08.53.103,gca_discrimination2,2022.2.4,144.0204164360422,
positions.xlsx,stimuli.xlsx,test.xlsx,stimuli/Test1.png,stimuli/Test2.png,stimuli/Social2.png,stimuli/Social1.png,stimuli/Nonsocial2.png,stimuli/Nonsocial1.png,stimuli/Social4.png,stimuli/Social3.png,stimuli/Nonsocial4.png,stimuli/Nonsocial3.png,"(-0.7, 0.5)",cs_neg_ns,"(-0.7, -0.5)",cs_neg_ns,0,0,0,0,,,,,0,11,11,83,,447.0524764000438,None,no answer,,,49,B,2024-05-22_14h08.53.103,gca_discrimination2,2022.2.4,144.0204164360422,
positions.xlsx,stimuli.xlsx,test.xlsx,stimuli/Test1.png,stimuli/Test2.png,stimuli/Social2.png,stimuli/Social1.png,stimuli/Nonsocial2.png,stimuli/Nonsocial1.png,stimuli/Social4.png,stimuli/Social3.png,stimuli/Nonsocial4.png,stimuli/Nonsocial3.png,"(-0.7, -0.5)",cs_neg_ns_new,"(-0.7, 0.5)",cs_pos_ns,0,0,0,0,,,,,0,12,12,44,,451.7467007000232,l,correct,1.3921486999606714,,49,B,2024-05-22_14h08.53.103,gca_discrimination2,2022.2.4,144.0204164360422,
positions.xlsx,stimuli.xlsx,test.xlsx,stimuli/Test1.png,stimuli/Test2.png,stimuli/Social2.png,stimuli/Social1.png,stimuli/Nonsocial2.png,stimuli/Nonsocial1.png,stimuli/Social4.png,stimuli/Social3.png,stimuli/Nonsocial4.png,stimuli/Nonsocial3.png,"(0.7, 0.5)",cs_neg_s_new,"(-0.7, 0.5)",cs_neg_s_new,0,0,0,0,,,,,0,13,13,60,,455.44796590006445,ä,correct,0.8992959000170231,,49,B,2024-05-22_14h08.53.103,gca_discrimination2,2022.2.4,144.0204164360422,
positions.xlsx,stimuli.xlsx,test.xlsx,stimuli/Test1.png,stimuli/Test2.png,stimuli/Social2.png,stimuli/Social1.png,stimuli/Nonsocial2.png,stimuli/Nonsocial1.png,stimuli/Social4.png,stimuli/Social3.png,stimuli/Nonsocial4.png,stimuli/Nonsocial3.png,"(-0.7, -0.5)",cs_neg_ns_new,"(0.7, 0.5)",cs_pos_ns,0,0,0,0,,,,,0,14,14,26,,458.24644060002174,ä,wrong,1.4372313999338076,,49,B,2024-05-22_14h08.53.103,gca_discrimination2,2022.2.4,144.0204164360422,
positions.xlsx,stimuli.xlsx,test.xlsx,stimuli/Test1.png,stimuli/Test2.png,stimuli/Social2.png,stimuli/Social1.png,stimuli/Nonsocial2.png,stimuli/Nonsocial1.png,stimuli/Social4.png,stimuli/Social3.png,stimuli/Nonsocial4.png,stimuli/Nonsocial3.png,"(0.7, -0.5)",cs_pos_s_new,"(0.7, 0.5)",cs_pos_s_new,0,0,0,0,,,,,0,15,15,54,,462.1976677000057,ä,correct,1.6054817000404,,49,B,2024-05-22_14h08.53.103,gca_discrimination2,2022.2.4,144.0204164360422,
positions.xlsx,stimuli.xlsx,test.xlsx,stimuli/Test1.png,stimuli/Test2.png,stimuli/Social2.png,stimuli/Social1.png,stimuli/Nonsocial2.png,stimuli/Nonsocial1.png,stimuli/Social4.png,stimuli/Social3.png,stimuli/Nonsocial4.png,stimuli/Nonsocial3.png,"(-0.7, -0.5)",cs_neg_s_new,"(0.7, 0.5)",cs_neg_s,0,0,0,0,,,,,0,16,16,3,,466.0794841001043,l,correct,0.9887562000658363,,49,B,2024-05-22_14h08.53.103,gca_discrimination2,2022.2.4,144.0204164360422,
positions.xlsx,stimuli.xlsx,test.xlsx,stimuli/Test1.png,stimuli/Test2.png,stimuli/Social2.png,stimuli/Social1.png,stimuli/Nonsocial2.png,stimuli/Nonsocial1.png,stimuli/Social4.png,stimuli/Social3.png,stimuli/Nonsocial4.png,stimuli/Nonsocial3.png,"(-0.7, -0.5)",cs_neg_ns,"(0.7, 0.5)",cs_neg_ns,0,0,0,0,,,,,0,17,17,77,,469.4890655000927,ä,correct,1.0256505999714136,,49,B,2024-05-22_14h08.53.103,gca_discrimination2,2022.2.4,144.0204164360422,
positions.xlsx,stimuli.xlsx,test.xlsx,stimuli/Test1.png,stimuli/Test2.png,stimuli/Social2.png,stimuli/Social1.png,stimuli/Nonsocial2.png,stimuli/Nonsocial1.png,stimuli/Social4.png,stimuli/Social3.png,stimuli/Nonsocial4.png,stimuli/Nonsocial3.png,"(0.7, -0.5)",cs_pos_ns,"(-0.7, -0.5)",cs_pos_ns_new,0,0,0,0,,,,,0,18,18,28,,473.10695500008296,l,correct,1.4003946000011638,,49,B,2024-05-22_14h08.53.103,gca_discrimination2,2022.2.4,144.0204164360422,
positions.xlsx,stimuli.xlsx,test.xlsx,stimuli/Test1.png,stimuli/Test2.png,stimuli/Social2.png,stimuli/Social1.png,stimuli/Nonsocial2.png,stimuli/Nonsocial1.png,stimuli/Social4.png,stimuli/Social3.png,stimuli/Nonsocial4.png,stimuli/Nonsocial3.png,"(-0.7, 0.5)",cs_neg_ns_new,"(0.7, 0.5)",cs_neg_ns_new,0,0,0,0,,,,,0,19,19,80,,477.3082155000884,ä,correct,1.134815700002946,,49,B,2024-05-22_14h08.53.103,gca_discrimination2,2022.2.4,144.0204164360422,
positions.xlsx,stimuli.xlsx,test.xlsx,stimuli/Test1.png,stimuli/Test2.png,stimuli/Social2.png,stimuli/Social1.png,stimuli/Nonsocial2.png,stimuli/Nonsocial1.png,stimuli/Social4.png,stimuli/Social3.png,stimuli/Nonsocial4.png,stimuli/Nonsocial3.png,"(-0.7, -0.5)",cs_pos_ns,"(0.7, 0.5)",cs_pos_ns,0,0,0,0,,,,,0,20,20,75,,480.71082300005946,ä,correct,1.1083830998977646,,49,B,2024-05-22_14h08.53.103,gca_discrimination2,2022.2.4,144.0204164360422,
positions.xlsx,stimuli.xlsx,test.xlsx,stimuli/Test1.png,stimuli/Test2.png,stimuli/Social2.png,stimuli/Social1.png,stimuli/Nonsocial2.png,stimuli/Nonsocial1.png,stimuli/Social4.png,stimuli/Social3.png,stimuli/Nonsocial4.png,stimuli/Nonsocial3.png,"(-0.7, 0.5)",cs_pos_ns,"(-0.7, -0.5)",cs_pos_ns,0,0,0,0,,,,,0,21,21,91,,484.1481976000359,None,no answer,,,49,B,2024-05-22_14h08.53.103,gca_discrimination2,2022.2.4,144.0204164360422,
positions.xlsx,stimuli.xlsx,test.xlsx,stimuli/Test1.png,stimuli/Test2.png,stimuli/Social2.png,stimuli/Social1.png,stimuli/Nonsocial2.png,stimuli/Nonsocial1.png,stimuli/Social4.png,stimuli/Social3.png,stimuli/Nonsocial4.png,stimuli/Nonsocial3.png,"(-0.7, 0.5)",cs_pos_s_new,"(0.7, -0.5)",cs_pos_s,0,0,0,0,,,,,0,22,22,0,,488.04385400004685,l,correct,1.207900399924256,,49,B,2024-05-22_14h08.53.103,gca_discrimination2,2022.2.4,144.0204164360422,
positions.xlsx,stimuli.xlsx,test.xlsx,stimuli/Test1.png,stimuli/Test2.png,stimuli/Social2.png,stimuli/Social1.png,stimuli/Nonsocial2.png,stimuli/Nonsocial1.png,stimuli/Social4.png,stimuli/Social3.png,stimuli/Nonsocial4.png,stimuli/Nonsocial3.png,"(0.7, 0.5)",cs_neg_ns_new,"(-0.7, -0.5)",cs_pos_ns_new,0,0,0,0,,,,,0,23,23,25,,491.4881684000138,None,no answer,,,49,B,2024-05-22_14h08.53.103,gca_discrimination2,2022.2.4,144.0204164360422,
positions.xlsx,stimuli.xlsx,test.xlsx,stimuli/Test1.png,stimuli/Test2.png,stimuli/Social2.png,stimuli/Social1.png,stimuli/Nonsocial2.png,stimuli/Nonsocial1.png,stimuli/Social4.png,stimuli/Social3.png,stimuli/Nonsocial4.png,stimuli/Nonsocial3.png,"(-0.7, 0.5)",cs_pos_s,"(0.7, 0.5)",cs_neg_s_new,0,0,0,0,,,,,0,24,24,7,,495.3977408000501,None,no answer,,,49,B,2024-05-22_14h08.53.103,gca_discrimination2,2022.2.4,144.0204164360422,
positions.xlsx,stimuli.xlsx,test.xlsx,stimuli/Test1.png,stimuli/Test2.png,stimuli/Social2.png,stimuli/Social1.png,stimuli/Nonsocial2.png,stimuli/Nonsocial1.png,stimuli/Social4.png,stimuli/Social3.png,stimuli/Nonsocial4.png,stimuli/Nonsocial3.png,"(0.7, -0.5)",cs_pos_ns_new,"(-0.7, -0.5)",cs_neg_ns,0,0,0,0,,,,,0,25,25,32,,499.58505540003534,None,no answer,,,49,B,2024-05-22_14h08.53.103,gca_discrimination2,2022.2.4,144.0204164360422,
positions.xlsx,stimuli.xlsx,test.xlsx,stimuli/Test1.png,stimuli/Test2.png,stimuli/Social2.png,stimuli/Social1.png,stimuli/Nonsocial2.png,stimuli/Nonsocial1.png,stimuli/Social4.png,stimuli/Social3.png,stimuli/Nonsocial4.png,stimuli/Nonsocial3.png,"(0.7, 0.5)",cs_pos_s,"(-0.7, -0.5)",cs_neg_s_new,0,0,0,0,,,,,0,26,26,13,,503.49463210010435,l,correct,1.0924970000050962,,49,B,2024-05-22_14h08.53.103,gca_discrimination2,2022.2.4,144.0204164360422,
positions.xlsx,stimuli.xlsx,test.xlsx,stimuli/Test1.png,stimuli/Test2.png,stimuli/Social2.png,stimuli/Social1.png,stimuli/Nonsocial2.png,stimuli/Nonsocial1.png,stimuli/Social4.png,stimuli/Social3.png,stimuli/Nonsocial4.png,stimuli/Nonsocial3.png,"(0.7, 0.5)",cs_neg_ns,"(-0.7, -0.5)",cs_neg_ns,0,0,0,0,,,,,0,27,27,87,,507.2653552000411,ä,correct,1.2574638999067247,,49,B,2024-05-22_14h08.53.103,gca_discrimination2,2022.2.4,144.0204164360422,
positions.xlsx,stimuli.xlsx,test.xlsx,stimuli/Test1.png,stimuli/Test2.png,stimuli/Social2.png,stimuli/Social1.png,stimuli/Nonsocial2.png,stimuli/Nonsocial1.png,stimuli/Social4.png,stimuli/Social3.png,stimuli/Nonsocial4.png,stimuli/Nonsocial3.png,"(0.7, -0.5)",cs_neg_ns_new,"(-0.7, -0.5)",cs_neg_ns_new,0,0,0,0,,,,,0,28,28,84,,511.1609806000488,l,wrong,1.9392609999049455,,49,B,2024-05-22_14h08.53.103,gca_discrimination2,2022.2.4,144.0204164360422,
positions.xlsx,stimuli.xlsx,test.xlsx,stimuli/Test1.png,stimuli/Test2.png,stimuli/Social2.png,stimuli/Social1.png,stimuli/Nonsocial2.png,stimuli/Nonsocial1.png,stimuli/Social4.png,stimuli/Social3.png,stimuli/Nonsocial4.png,stimuli/Nonsocial3.png,"(0.7, 0.5)",cs_neg_ns,"(-0.7, 0.5)",cs_neg_ns,0,0,0,0,,,,,0,29,29,76,,515.2510801000753,None,no answer,,,49,B,2024-05-22_14h08.53.103,gca_discrimination2,2022.2.4,144.0204164360422,
positions.xlsx,stimuli.xlsx,test.xlsx,stimuli/Test1.png,stimuli/Test2.png,stimuli/Social2.png,stimuli/Social1.png,stimuli/Nonsocial2.png,stimuli/Nonsocial1.png,stimuli/Social4.png,stimuli/Social3.png,stimuli/Nonsocial4.png,stimuli/Nonsocial3.png,"(-0.7, -0.5)",cs_neg_s,"(0.7, 0.5)",cs_neg_s,0,0,0,0,,,,,0,30,30,50,,519.4245375000173,l,wrong,1.338687099982053,,49,B,2024-05-22_14h08.53.103,gca_discrimination2,2022.2.4,144.0204164360422,
positions.xlsx,stimuli.xlsx,test.xlsx,stimuli/Test1.png,stimuli/Test2.png,stimuli/Social2.png,stimuli/Social1.png,stimuli/Nonsocial2.png,stimuli/Nonsocial1.png,stimuli/Social4.png,stimuli/Social3.png,stimuli/Nonsocial4.png,stimuli/Nonsocial3.png,"(0.7, 0.5)",cs_neg_s,"(0.7, -0.5)",cs_neg_s_new,0,0,0,0,,,,,0,31,31,16,,523.4035424001049,l,correct,1.4803167000645772,,49,B,2024-05-22_14h08.53.103,gca_discrimination2,2022.2.4,144.0204164360422,
positions.xlsx,stimuli.xlsx,test.xlsx,stimuli/Test1.png,stimuli/Test2.png,stimuli/Social2.png,stimuli/Social1.png,stimuli/Nonsocial2.png,stimuli/Nonsocial1.png,stimuli/Social4.png,stimuli/Social3.png,stimuli/Nonsocial4.png,stimuli/Nonsocial3.png,"(-0.7, 0.5)",cs_neg_ns,"(-0.7, -0.5)",cs_pos_ns_new,0,0,0,0,,,,,0,32,32,40,,526.7367388000712,ä,wrong,0.842091599944979,,49,B,2024-05-22_14h08.53.103,gca_discrimination2,2022.2.4,144.0204164360422,
positions.xlsx,stimuli.xlsx,test.xlsx,stimuli/Test1.png,stimuli/Test2.png,stimuli/Social2.png,stimuli/Social1.png,stimuli/Nonsocial2.png,stimuli/Nonsocial1.png,stimuli/Social4.png,stimuli/Social3.png,stimuli/Nonsocial4.png,stimuli/Nonsocial3.png,"(-0.7, 0.5)",cs_neg_s_new,"(-0.7, -0.5)",cs_neg_s_new,0,0,0,0,,,,,0,33,33,55,,529.9588314000284,ä,correct,1.4292262999806553,,49,B,2024-05-22_14h08.53.103,gca_discrimination2,2022.2.4,144.0204164360422,
positions.xlsx,stimuli.xlsx,test.xlsx,stimuli/Test1.png,stimuli/Test2.png,stimuli/Social2.png,stimuli/Social1.png,stimuli/Nonsocial2.png,stimuli/Nonsocial1.png,stimuli/Social4.png,stimuli/Social3.png,stimuli/Nonsocial4.png,stimuli/Nonsocial3.png,"(0.7, -0.5)",cs_pos_s,"(0.7, 0.5)",cs_neg_s,0,0,0,0,,,,,0,34,34,1,,533.5628841000143,ä,wrong,1.160606599994935,,49,B,2024-05-22_14h08.53.103,gca_discrimination2,2022.2.4,144.0204164360422,
positions.xlsx,stimuli.xlsx,test.xlsx,stimuli/Test1.png,stimuli/Test2.png,stimuli/Social2.png,stimuli/Social1.png,stimuli/Nonsocial2.png,stimuli/Nonsocial1.png,stimuli/Social4.png,stimuli/Social3.png,stimuli/Nonsocial4.png,stimuli/Nonsocial3.png,"(0.7, -0.5)",cs_pos_s,"(-0.7, -0.5)",cs_pos_s,0,0,0,0,,,,,0,35,35,57,,536.5696762000443,l,wrong,1.8091022999724373,,49,B,2024-05-22_14h08.53.103,gca_discrimination2,2022.2.4,144.0204164360422,
positions.xlsx,stimuli.xlsx,test.xlsx,stimuli/Test1.png,stimuli/Test2.png,stimuli/Social2.png,stimuli/Social1.png,stimuli/Nonsocial2.png,stimuli/Nonsocial1.png,stimuli/Social4.png,stimuli/Social3.png,stimuli/Nonsocial4.png,stimuli/Nonsocial3.png,"(-0.7, -0.5)",cs_neg_s_new,"(-0.7, 0.5)",cs_neg_s_new,0,0,0,0,,,,,0,36,36,71,,540.4723022000398,ä,correct,1.35495379997883,,49,B,2024-05-22_14h08.53.103,gca_discrimination2,2022.2.4,144.0204164360422,
positions.xlsx,stimuli.xlsx,test.xlsx,stimuli/Test1.png,stimuli/Test2.png,stimuli/Social2.png,stimuli/Social1.png,stimuli/Nonsocial2.png,stimuli/Nonsocial1.png,stimuli/Social4.png,stimuli/Social3.png,stimuli/Nonsocial4.png,stimuli/Nonsocial3.png,"(0.7, 0.5)",cs_pos_s,"(-0.7, 0.5)",cs_neg_s_new,0,0,0,0,,,,,0,37,37,14,,544.361025600112,l,correct,1.155502500012517,,49,B,2024-05-22_14h08.53.103,gca_discrimination2,2022.2.4,144.0204164360422,
positions.xlsx,stimuli.xlsx,test.xlsx,stimuli/Test1.png,stimuli/Test2.png,stimuli/Social2.png,stimuli/Social1.png,stimuli/Nonsocial2.png,stimuli/Nonsocial1.png,stimuli/Social4.png,stimuli/Social3.png,stimuli/Nonsocial4.png,stimuli/Nonsocial3.png,"(-0.7, -0.5)",cs_neg_s_new,"(0.7, 0.5)",cs_neg_s_new,0,0,0,0,,,,,0,38,38,52,,548.0831220000982,l,wrong,1.6001382999820635,,49,B,2024-05-22_14h08.53.103,gca_discrimination2,2022.2.4,144.0204164360422,
positions.xlsx,stimuli.xlsx,test.xlsx,stimuli/Test1.png,stimuli/Test2.png,stimuli/Social2.png,stimuli/Social1.png,stimuli/Nonsocial2.png,stimuli/Nonsocial1.png,stimuli/Social4.png,stimuli/Social3.png,stimuli/Nonsocial4.png,stimuli/Nonsocial3.png,"(-0.7, 0.5)",cs_neg_ns,"(0.7, 0.5)",cs_pos_ns_new,0,0,0,0,,,,,0,39,39,45,,552.3815624000272,ä,wrong,1.2214983999729156,,49,B,2024-05-22_14h08.53.103,gca_discrimination2,2022.2.4,144.0204164360422,
positions.xlsx,stimuli.xlsx,test.xlsx,stimuli/Test1.png,stimuli/Test2.png,stimuli/Social2.png,stimuli/Social1.png,stimuli/Nonsocial2.png,stimuli/Nonsocial1.png,stimuli/Social4.png,stimuli/Social3.png,stimuli/Nonsocial4.png,stimuli/Nonsocial3.png,"(0.7, 0.5)",cs_pos_ns_new,"(-0.7, -0.5)",cs_pos_ns_new,0,0,0,0,,,,,0,40,40,92,,555.9508697000565,ä,correct,1.7959429998882115,,49,B,2024-05-22_14h08.53.103,gca_discrimination2,2022.2.4,144.0204164360422,
positions.xlsx,stimuli.xlsx,test.xlsx,stimuli/Test1.png,stimuli/Test2.png,stimuli/Social2.png,stimuli/Social1.png,stimuli/Nonsocial2.png,stimuli/Nonsocial1.png,stimuli/Social4.png,stimuli/Social3.png,stimuli/Nonsocial4.png,stimuli/Nonsocial3.png,"(-0.7, 0.5)",cs_pos_s_new,"(0.7, -0.5)",cs_pos_s_new,0,0,0,0,,,,,0,41,41,66,,560.3742677000118,ä,correct,1.3963358999462798,,49,B,2024-05-22_14h08.53.103,gca_discrimination2,2022.2.4,144.0204164360422,
positions.xlsx,stimuli.xlsx,test.xlsx,stimuli/Test1.png,stimuli/Test2.png,stimuli/Social2.png,stimuli/Social1.png,stimuli/Nonsocial2.png,stimuli/Nonsocial1.png,stimuli/Social4.png,stimuli/Social3.png,stimuli/Nonsocial4.png,stimuli/Nonsocial3.png,"(-0.7, 0.5)",cs_neg_ns_new,"(-0.7, -0.5)",cs_neg_ns,0,0,0,0,,,,,0,42,42,47,,564.3879981000209,l,correct,1.7826297000283375,,49,B,2024-05-22_14h08.53.103,gca_discrimination2,2022.2.4,144.0204164360422,
positions.xlsx,stimuli.xlsx,test.xlsx,stimuli/Test1.png,stimuli/Test2.png,stimuli/Social2.png,stimuli/Social1.png,stimuli/Nonsocial2.png,stimuli/Nonsocial1.png,stimuli/Social4.png,stimuli/Social3.png,stimuli/Nonsocial4.png,stimuli/Nonsocial3.png,"(0.7, -0.5)",cs_pos_s,"(-0.7, 0.5)",cs_pos_s_new,0,0,0,0,,,,,0,43,43,12,,568.3669959000545,None,no answer,,,49,B,2024-05-22_14h08.53.103,gca_discrimination2,2022.2.4,144.0204164360422,
positions.xlsx,stimuli.xlsx,test.xlsx,stimuli/Test1.png,stimuli/Test2.png,stimuli/Social2.png,stimuli/Social1.png,stimuli/Nonsocial2.png,stimuli/Nonsocial1.png,stimuli/Social4.png,stimuli/Social3.png,stimuli/Nonsocial4.png,stimuli/Nonsocial3.png,"(-0.7, -0.5)",cs_pos_ns,"(0.7, 0.5)",cs_pos_ns_new,0,0,0,0,,,,,0,44,44,31,,572.7140442000236,None,no answer,,,49,B,2024-05-22_14h08.53.103,gca_discrimination2,2022.2.4,144.0204164360422,
positions.xlsx,stimuli.xlsx,test.xlsx,stimuli/Test1.png,stimuli/Test2.png,stimuli/Social2.png,stimuli/Social1.png,stimuli/Nonsocial2.png,stimuli/Nonsocial1.png,stimuli/Social4.png,stimuli/Social3.png,stimuli/Nonsocial4.png,stimuli/Nonsocial3.png,"(0.7, 0.5)",cs_pos_s,"(-0.7, -0.5)",cs_pos_s,0,0,0,0,,,,,0,45,45,53,,576.9222056000726,ä,correct,1.4172034000512213,,49,B,2024-05-22_14h08.53.103,gca_discrimination2,2022.2.4,144.0204164360422,
positions.xlsx,stimuli.xlsx,test.xlsx,stimuli/Test1.png,stimuli/Test2.png,stimuli/Social2.png,stimuli/Social1.png,stimuli/Nonsocial2.png,stimuli/Nonsocial1.png,stimuli/Social4.png,stimuli/Social3.png,stimuli/Nonsocial4.png,stimuli/Nonsocial3.png,"(-0.7, -0.5)",cs_pos_s,"(0.7, -0.5)",cs_neg_s,0,0,0,0,,,,,0,46,46,15,,581.0540046000388,ä,wrong,1.75817249994725,,49,B,2024-05-22_14h08.53.103,gca_discrimination2,2022.2.4,144.0204164360422,
positions.xlsx,stimuli.xlsx,test.xlsx,stimuli/Test1.png,stimuli/Test2.png,stimuli/Social2.png,stimuli/Social1.png,stimuli/Nonsocial2.png,stimuli/Nonsocial1.png,stimuli/Social4.png,stimuli/Social3.png,stimuli/Nonsocial4.png,stimuli/Nonsocial3.png,"(0.7, 0.5)",cs_pos_s_new,"(-0.7, -0.5)",cs_neg_s,0,0,0,0,,,,,0,47,47,23,,585.0816277000122,l,correct,1.513969299965538,,49,B,2024-05-22_14h08.53.103,gca_discrimination2,2022.2.4,144.0204164360422,
positions.xlsx,stimuli.xlsx,test.xlsx,stimuli/Test1.png,stimuli/Test2.png,stimuli/Social2.png,stimuli/Social1.png,stimuli/Nonsocial2.png,stimuli/Nonsocial1.png,stimuli/Social4.png,stimuli/Social3.png,stimuli/Nonsocial4.png,stimuli/Nonsocial3.png,"(-0.7, 0.5)",cs_pos_ns,"(-0.7, -0.5)",cs_pos_ns_new,0,0,0,0,,,,,0,48,48,39,,588.9772605000762,l,correct,1.6741130000445992,,49,B,2024-05-22_14h08.53.103,gca_discrimination2,2022.2.4,144.0204164360422,
positions.xlsx,stimuli.xlsx,test.xlsx,stimuli/Test1.png,stimuli/Test2.png,stimuli/Social2.png,stimuli/Social1.png,stimuli/Nonsocial2.png,stimuli/Nonsocial1.png,stimuli/Social4.png,stimuli/Social3.png,stimuli/Nonsocial4.png,stimuli/Nonsocial3.png,"(-0.7, 0.5)",cs_neg_s_new,"(0.7, 0.5)",cs_neg_s_new,0,0,0,0,,,,,0,49,49,61,,593.3034920000937,ä,correct,0.8039195999735966,,49,B,2024-05-22_14h08.53.103,gca_discrimination2,2022.2.4,144.0204164360422,
positions.xlsx,stimuli.xlsx,test.xlsx,stimuli/Test1.png,stimuli/Test2.png,stimuli/Social2.png,stimuli/Social1.png,stimuli/Nonsocial2.png,stimuli/Nonsocial1.png,stimuli/Social4.png,stimuli/Social3.png,stimuli/Nonsocial4.png,stimuli/Nonsocial3.png,"(-0.7, -0.5)",cs_pos_ns,"(0.7, 0.5)",cs_neg_ns_new,0,0,0,0,,,,,0,50,50,41,,596.7408597000176,l,correct,1.2464155999477953,,49,B,2024-05-22_14h08.53.103,gca_discrimination2,2022.2.4,144.0204164360422,
positions.xlsx,stimuli.xlsx,test.xlsx,stimuli/Test1.png,stimuli/Test2.png,stimuli/Social2.png,stimuli/Social1.png,stimuli/Nonsocial2.png,stimuli/Nonsocial1.png,stimuli/Social4.png,stimuli/Social3.png,stimuli/Nonsocial4.png,stimuli/Nonsocial3.png,"(0.7, 0.5)",cs_neg_s_new,"(-0.7, 0.5)",cs_neg_s,0,0,0,0,,,,,0,51,51,21,,600.0462826000294,l,correct,1.0929965999675915,,49,B,2024-05-22_14h08.53.103,gca_discrimination2,2022.2.4,144.0204164360422,
positions.xlsx,stimuli.xlsx,test.xlsx,stimuli/Test1.png,stimuli/Test2.png,stimuli/Social2.png,stimuli/Social1.png,stimuli/Nonsocial2.png,stimuli/Nonsocial1.png,stimuli/Social4.png,stimuli/Social3.png,stimuli/Nonsocial4.png,stimuli/Nonsocial3.png,"(0.7, 0.5)",cs_pos_s_new,"(-0.7, -0.5)",cs_pos_s_new,0,0,0,0,,,,,0,52,52,63,,603.469743900001,ä,correct,1.0777575999964029,,49,B,2024-05-22_14h08.53.103,gca_discrimination2,2022.2.4,144.0204164360422,
positions.xlsx,stimuli.xlsx,test.xlsx,stimuli/Test1.png,stimuli/Test2.png,stimuli/Social2.png,stimuli/Social1.png,stimuli/Nonsocial2.png,stimuli/Nonsocial1.png,stimuli/Social4.png,stimuli/Social3.png,stimuli/Nonsocial4.png,stimuli/Nonsocial3.png,"(0.7, -0.5)",cs_neg_s,"(-0.7, 0.5)",cs_neg_s,0,0,0,0,,,,,0,53,53,69,,606.9695589001058,l,wrong,1.945246999966912,,49,B,2024-05-22_14h08.53.103,gca_discrimination2,2022.2.4,144.0204164360422,
positions.xlsx,stimuli.xlsx,test.xlsx,stimuli/Test1.png,stimuli/Test2.png,stimuli/Social2.png,stimuli/Social1.png,stimuli/Nonsocial2.png,stimuli/Nonsocial1.png,stimuli/Social4.png,stimuli/Social3.png,stimuli/Nonsocial4.png,stimuli/Nonsocial3.png,"(0.7, -0.5)",cs_neg_ns,"(-0.7, -0.5)",cs_neg_ns,0,0,0,0,,,,,0,54,54,73,,611.3652795000235,ä,correct,1.3420332999667153,,49,B,2024-05-22_14h08.53.103,gca_discrimination2,2022.2.4,144.0204164360422,
positions.xlsx,stimuli.xlsx,test.xlsx,stimuli/Test1.png,stimuli/Test2.png,stimuli/Social2.png,stimuli/Social1.png,stimuli/Nonsocial2.png,stimuli/Nonsocial1.png,stimuli/Social4.png,stimuli/Social3.png,stimuli/Nonsocial4.png,stimuli/Nonsocial3.png,"(0.7, -0.5)",cs_pos_ns,"(-0.7, -0.5)",cs_pos_ns,0,0,0,0,,,,,0,55,55,90,,615.1706617000746,ä,correct,0.9133538000751287,,49,B,2024-05-22_14h08.53.103,gca_discrimination2,2022.2.4,144.0204164360422,
positions.xlsx,stimuli.xlsx,test.xlsx,stimuli/Test1.png,stimuli/Test2.png,stimuli/Social2.png,stimuli/Social1.png,stimuli/Nonsocial2.png,stimuli/Nonsocial1.png,stimuli/Social4.png,stimuli/Social3.png,stimuli/Nonsocial4.png,stimuli/Nonsocial3.png,"(-0.7, -0.5)",cs_pos_ns_new,"(-0.7, 0.5)",cs_neg_ns,0,0,0,0,,,,,0,56,56,36,,618.8094066000776,l,correct,1.1303928000852466,,49,B,2024-05-22_14h08.53.103,gca_discrimination2,2022.2.4,144.0204164360422,
positions.xlsx,stimuli.xlsx,test.xlsx,stimuli/Test1.png,stimuli/Test2.png,stimuli/Social2.png,stimuli/Social1.png,stimuli/Nonsocial2.png,stimuli/Nonsocial1.png,stimuli/Social4.png,stimuli/Social3.png,stimuli/Nonsocial4.png,stimuli/Nonsocial3.png,"(0.7, 0.5)",cs_neg_ns,"(0.7, -0.5)",cs_neg_ns_new,0,0,0,0,,,,,0,57,57,35,,622.260651800083,None,no answer,,,49,B,2024-05-22_14h08.53.103,gca_discrimination2,2022.2.4,144.0204164360422,
positions.xlsx,stimuli.xlsx,test.xlsx,stimuli/Test1.png,stimuli/Test2.png,stimuli/Social2.png,stimuli/Social1.png,stimuli/Nonsocial2.png,stimuli/Nonsocial1.png,stimuli/Social4.png,stimuli/Social3.png,stimuli/Nonsocial4.png,stimuli/Nonsocial3.png,"(-0.7, -0.5)",cs_neg_s_new,"(-0.7, 0.5)",cs_pos_s,0,0,0,0,,,,,0,58,58,4,,626.2327161000576,l,correct,1.0908774000126868,,49,B,2024-05-22_14h08.53.103,gca_discrimination2,2022.2.4,144.0204164360422,
positions.xlsx,stimuli.xlsx,test.xlsx,stimuli/Test1.png,stimuli/Test2.png,stimuli/Social2.png,stimuli/Social1.png,stimuli/Nonsocial2.png,stimuli/Nonsocial1.png,stimuli/Social4.png,stimuli/Social3.png,stimuli/Nonsocial4.png,stimuli/Nonsocial3.png,"(-0.7, -0.5)",cs_neg_s,"(0.7, -0.5)",cs_neg_s,0,0,0,0,,,,,0,59,59,67,,629.5589848000091,ä,correct,1.7239337000064552,,49,B,2024-05-22_14h08.53.103,gca_discrimination2,2022.2.4,144.0204164360422,
positions.xlsx,stimuli.xlsx,test.xlsx,stimuli/Test1.png,stimuli/Test2.png,stimuli/Social2.png,stimuli/Social1.png,stimuli/Nonsocial2.png,stimuli/Nonsocial1.png,stimuli/Social4.png,stimuli/Social3.png,stimuli/Nonsocial4.png,stimuli/Nonsocial3.png,"(0.7, 0.5)",cs_neg_s_new,"(-0.7, -0.5)",cs_pos_s,0,0,0,0,,,,,0,60,60,2,,633.91300890001,l,correct,0.842235799995251,,49,B,2024-05-22_14h08.53.103,gca_discrimination2,2022.2.4,144.0204164360422,
positions.xlsx,stimuli.xlsx,test.xlsx,stimuli/Test1.png,stimuli/Test2.png,stimuli/Social2.png,stimuli/Social1.png,stimuli/Nonsocial2.png,stimuli/Nonsocial1.png,stimuli/Social4.png,stimuli/Social3.png,stimuli/Nonsocial4.png,stimuli/Nonsocial3.png,"(0.7, -0.5)",cs_pos_ns,"(-0.7, 0.5)",cs_pos_ns_new,0,0,0,0,,,,,0,61,61,46,,637.3295005999971,l,correct,1.6016123000299558,,49,B,2024-05-22_14h08.53.103,gca_discrimination2,2022.2.4,144.0204164360422,
positions.xlsx,stimuli.xlsx,test.xlsx,stimuli/Test1.png,stimuli/Test2.png,stimuli/Social2.png,stimuli/Social1.png,stimuli/Nonsocial2.png,stimuli/Nonsocial1.png,stimuli/Social4.png,stimuli/Social3.png,stimuli/Nonsocial4.png,stimuli/Nonsocial3.png,"(0.7, 0.5)",cs_pos_s_new,"(-0.7, 0.5)",cs_pos_s,0,0,0,0,,,,,0,62,62,17,,641.7181904000463,ä,wrong,0.9815958999097347,,49,B,2024-05-22_14h08.53.103,gca_discrimination2,2022.2.4,144.0204164360422,
positions.xlsx,stimuli.xlsx,test.xlsx,stimuli/Test1.png,stimuli/Test2.png,stimuli/Social2.png,stimuli/Social1.png,stimuli/Nonsocial2.png,stimuli/Nonsocial1.png,stimuli/Social4.png,stimuli/Social3.png,stimuli/Nonsocial4.png,stimuli/Nonsocial3.png,"(-0.7, 0.5)",cs_pos_ns_new,"(0.7, 0.5)",cs_pos_ns_new,0,0,0,0,,,,,0,63,63,85,,645.1347218001029,ä,correct,1.0364261000650004,,49,B,2024-05-22_14h08.53.103,gca_discrimination2,2022.2.4,144.0204164360422,
positions.xlsx,stimuli.xlsx,test.xlsx,stimuli/Test1.png,stimuli/Test2.png,stimuli/Social2.png,stimuli/Social1.png,stimuli/Nonsocial2.png,stimuli/Nonsocial1.png,stimuli/Social4.png,stimuli/Social3.png,stimuli/Nonsocial4.png,stimuli/Nonsocial3.png,"(0.7, 0.5)",cs_neg_ns,"(0.7, -0.5)",cs_neg_ns,0,0,0,0,,,,,0,64,64,78,,648.1901653000386,ä,correct,0.7646689999382943,,49,B,2024-05-22_14h08.53.103,gca_discrimination2,2022.2.4,144.0204164360422,
positions.xlsx,stimuli.xlsx,test.xlsx,stimuli/Test1.png,stimuli/Test2.png,stimuli/Social2.png,stimuli/Social1.png,stimuli/Nonsocial2.png,stimuli/Nonsocial1.png,stimuli/Social4.png,stimuli/Social3.png,stimuli/Nonsocial4.png,stimuli/Nonsocial3.png,"(-0.7, -0.5)",cs_neg_ns,"(-0.7, 0.5)",cs_pos_ns_new,0,0,0,0,,,,,0,65,65,30,,650.8428467001067,l,correct,1.3916984000243247,,49,B,2024-05-22_14h08.53.103,gca_discrimination2,2022.2.4,144.0204164360422,
positions.xlsx,stimuli.xlsx,test.xlsx,stimuli/Test1.png,stimuli/Test2.png,stimuli/Social2.png,stimuli/Social1.png,stimuli/Nonsocial2.png,stimuli/Nonsocial1.png,stimuli/Social4.png,stimuli/Social3.png,stimuli/Nonsocial4.png,stimuli/Nonsocial3.png,"(0.7, 0.5)",cs_pos_s,"(-0.7, 0.5)",cs_pos_s,0,0,0,0,,,,,0,66,66,56,,654.4121237000218,ä,correct,1.3827571999281645,,49,B,2024-05-22_14h08.53.103,gca_discrimination2,2022.2.4,144.0204164360422,
positions.xlsx,stimuli.xlsx,test.xlsx,stimuli/Test1.png,stimuli/Test2.png,stimuli/Social2.png,stimuli/Social1.png,stimuli/Nonsocial2.png,stimuli/Nonsocial1.png,stimuli/Social4.png,stimuli/Social3.png,stimuli/Nonsocial4.png,stimuli/Nonsocial3.png,"(0.7, 0.5)",cs_pos_ns,"(-0.7, 0.5)",cs_pos_ns_new,0,0,0,0,,,,,0,67,67,27,,657.7730853001121,None,no answer,,,49,B,2024-05-22_14h08.53.103,gca_discrimination2,2022.2.4,144.0204164360422,
positions.xlsx,stimuli.xlsx,test.xlsx,stimuli/Test1.png,stimuli/Test2.png,stimuli/Social2.png,stimuli/Social1.png,stimuli/Nonsocial2.png,stimuli/Nonsocial1.png,stimuli/Social4.png,stimuli/Social3.png,stimuli/Nonsocial4.png,stimuli/Nonsocial3.png,"(0.7, -0.5)",cs_pos_s,"(-0.7, -0.5)",cs_neg_s_new,0,0,0,0,,,,,0,68,68,22,,662.2937846001005,l,correct,1.3010691000381485,,49,B,2024-05-22_14h08.53.103,gca_discrimination2,2022.2.4,144.0204164360422,
positions.xlsx,stimuli.xlsx,test.xlsx,stimuli/Test1.png,stimuli/Test2.png,stimuli/Social2.png,stimuli/Social1.png,stimuli/Nonsocial2.png,stimuli/Nonsocial1.png,stimuli/Social4.png,stimuli/Social3.png,stimuli/Nonsocial4.png,stimuli/Nonsocial3.png,"(0.7, -0.5)",cs_neg_ns,"(0.7, 0.5)",cs_pos_ns_new,0,0,0,0,,,,,0,69,69,42,,665.8700287000975,ä,wrong,1.4447485000127926,,49,B,2024-05-22_14h08.53.103,gca_discrimination2,2022.2.4,144.0204164360422,
positions.xlsx,stimuli.xlsx,test.xlsx,stimuli/Test1.png,stimuli/Test2.png,stimuli/Social2.png,stimuli/Social1.png,stimuli/Nonsocial2.png,stimuli/Nonsocial1.png,stimuli/Social4.png,stimuli/Social3.png,stimuli/Nonsocial4.png,stimuli/Nonsocial3.png,"(-0.7, -0.5)",cs_pos_s_new,"(-0.7, 0.5)",cs_pos_s_new,0,0,0,0,,,,,0,70,70,58,,669.2587289001094,ä,correct,1.2881854000734165,,49,B,2024-05-22_14h08.53.103,gca_discrimination2,2022.2.4,144.0204164360422,
positions.xlsx,stimuli.xlsx,test.xlsx,stimuli/Test1.png,stimuli/Test2.png,stimuli/Social2.png,stimuli/Social1.png,stimuli/Nonsocial2.png,stimuli/Nonsocial1.png,stimuli/Social4.png,stimuli/Social3.png,stimuli/Nonsocial4.png,stimuli/Nonsocial3.png,"(0.7, 0.5)",cs_pos_ns,"(-0.7, 0.5)",cs_pos_ns,0,0,0,0,,,,,0,71,71,88,,673.0572385000996,ä,correct,1.72991130000446,,49,B,2024-05-22_14h08.53.103,gca_discrimination2,2022.2.4,144.0204164360422,
positions.xlsx,stimuli.xlsx,test.xlsx,stimuli/Test1.png,stimuli/Test2.png,stimuli/Social2.png,stimuli/Social1.png,stimuli/Nonsocial2.png,stimuli/Nonsocial1.png,stimuli/Social4.png,stimuli/Social3.png,stimuli/Nonsocial4.png,stimuli/Nonsocial3.png,"(-0.7, -0.5)",cs_pos_s_new,"(0.7, 0.5)",cs_neg_s,0,0,0,0,,,,,0,72,72,11,,676.7931512000505,l,correct,1.5063656999263912,,49,B,2024-05-22_14h08.53.103,gca_discrimination2,2022.2.4,144.0204164360422,
positions.xlsx,stimuli.xlsx,test.xlsx,stimuli/Test1.png,stimuli/Test2.png,stimuli/Social2.png,stimuli/Social1.png,stimuli/Nonsocial2.png,stimuli/Nonsocial1.png,stimuli/Social4.png,stimuli/Social3.png,stimuli/Nonsocial4.png,stimuli/Nonsocial3.png,"(-0.7, 0.5)",cs_pos_s,"(0.7, -0.5)",cs_neg_s_new,0,0,0,0,,,,,0,73,73,10,,680.9388491000282,l,correct,1.2245425999863073,,49,B,2024-05-22_14h08.53.103,gca_discrimination2,2022.2.4,144.0204164360422,
positions.xlsx,stimuli.xlsx,test.xlsx,stimuli/Test1.png,stimuli/Test2.png,stimuli/Social2.png,stimuli/Social1.png,stimuli/Nonsocial2.png,stimuli/Nonsocial1.png,stimuli/Social4.png,stimuli/Social3.png,stimuli/Nonsocial4.png,stimuli/Nonsocial3.png,"(-0.7, 0.5)",cs_pos_s,"(0.7, -0.5)",cs_pos_s,0,0,0,0,,,,,0,74,74,48,,684.2442504001083,ä,correct,0.9998990000458434,,49,B,2024-05-22_14h08.53.103,gca_discrimination2,2022.2.4,144.0204164360422,
positions.xlsx,stimuli.xlsx,test.xlsx,stimuli/Test1.png,stimuli/Test2.png,stimuli/Social2.png,stimuli/Social1.png,stimuli/Nonsocial2.png,stimuli/Nonsocial1.png,stimuli/Social4.png,stimuli/Social3.png,stimuli/Nonsocial4.png,stimuli/Nonsocial3.png,"(-0.7, -0.5)",cs_neg_s,"(-0.7, 0.5)",cs_neg_s,0,0,0,0,,,,,0,75,75,51,,687.1746925000334,l,wrong,1.1160171999363229,,49,B,2024-05-22_14h08.53.103,gca_discrimination2,2022.2.4,144.0204164360422,
positions.xlsx,stimuli.xlsx,test.xlsx,stimuli/Test1.png,stimuli/Test2.png,stimuli/Social2.png,stimuli/Social1.png,stimuli/Nonsocial2.png,stimuli/Nonsocial1.png,stimuli/Social4.png,stimuli/Social3.png,stimuli/Nonsocial4.png,stimuli/Nonsocial3.png,"(0.7, -0.5)",cs_pos_ns_new,"(-0.7, 0.5)",cs_pos_ns_new,0,0,0,0,,,,,0,76,76,74,,690.8134338000091,ä,correct,1.685009100008756,,49,B,2024-05-22_14h08.53.103,gca_discrimination2,2022.2.4,144.0204164360422,
positions.xlsx,stimuli.xlsx,test.xlsx,stimuli/Test1.png,stimuli/Test2.png,stimuli/Social2.png,stimuli/Social1.png,stimuli/Nonsocial2.png,stimuli/Nonsocial1.png,stimuli/Social4.png,stimuli/Social3.png,stimuli/Nonsocial4.png,stimuli/Nonsocial3.png,"(-0.7, -0.5)",cs_pos_ns,"(0.7, -0.5)",cs_pos_ns,0,0,0,0,,,,,0,77,77,81,,694.7646726000821,ä,correct,0.8943407000042498,,49,B,2024-05-22_14h08.53.103,gca_discrimination2,2022.2.4,144.0204164360422,
positions.xlsx,stimuli.xlsx,test.xlsx,stimuli/Test1.png,stimuli/Test2.png,stimuli/Social2.png,stimuli/Social1.png,stimuli/Nonsocial2.png,stimuli/Nonsocial1.png,stimuli/Social4.png,stimuli/Social3.png,stimuli/Nonsocial4.png,stimuli/Nonsocial3.png,"(-0.7, -0.5)",cs_pos_s_new,"(-0.7, 0.5)",cs_neg_s,0,0,0,0,,,,,0,78,78,19,,697.8826109000947,ä,wrong,1.6643948999699205,,49,B,2024-05-22_14h08.53.103,gca_discrimination2,2022.2.4,144.0204164360422,
positions.xlsx,stimuli.xlsx,test.xlsx,stimuli/Test1.png,stimuli/Test2.png,stimuli/Social2.png,stimuli/Social1.png,stimuli/Nonsocial2.png,stimuli/Nonsocial1.png,stimuli/Social4.png,stimuli/Social3.png,stimuli/Nonsocial4.png,stimuli/Nonsocial3.png,"(0.7, -0.5)",cs_neg_s,"(0.7, 0.5)",cs_neg_s,0,0,0,0,,,,,0,79,79,68,,701.410201700055,ä,correct,1.5296180000295863,,49,B,2024-05-22_14h08.53.103,gca_discrimination2,2022.2.4,144.0204164360422,
positions.xlsx,stimuli.xlsx,test.xlsx,stimuli/Test1.png,stimuli/Test2.png,stimuli/Social2.png,stimuli/Social1.png,stimuli/Nonsocial2.png,stimuli/Nonsocial1.png,stimuli/Social4.png,stimuli/Social3.png,stimuli/Nonsocial4.png,stimuli/Nonsocial3.png,"(-0.7, 0.5)",cs_neg_ns_new,"(-0.7, -0.5)",cs_neg_ns_new,0,0,0,0,,,,,0,80,80,95,,704.8267856000457,ä,correct,1.2007231999887154,,49,B,2024-05-22_14h08.53.103,gca_discrimination2,2022.2.4,144.0204164360422,
positions.xlsx,stimuli.xlsx,test.xlsx,stimuli/Test1.png,stimuli/Test2.png,stimuli/Social2.png,stimuli/Social1.png,stimuli/Nonsocial2.png,stimuli/Nonsocial1.png,stimuli/Social4.png,stimuli/Social3.png,stimuli/Nonsocial4.png,stimuli/Nonsocial3.png,"(-0.7, -0.5)",cs_pos_s_new,"(0.7, 0.5)",cs_pos_s_new,0,0,0,0,,,,,0,81,81,62,,708.132173400023,ä,correct,0.9666316999355331,,49,B,2024-05-22_14h08.53.103,gca_discrimination2,2022.2.4,144.0204164360422,
positions.xlsx,stimuli.xlsx,test.xlsx,stimuli/Test1.png,stimuli/Test2.png,stimuli/Social2.png,stimuli/Social1.png,stimuli/Nonsocial2.png,stimuli/Nonsocial1.png,stimuli/Social4.png,stimuli/Social3.png,stimuli/Nonsocial4.png,stimuli/Nonsocial3.png,"(0.7, 0.5)",cs_neg_ns_new,"(-0.7, 0.5)",cs_pos_ns_new,0,0,0,0,,,,,0,82,82,24,,711.5695388000458,l,correct,1.009535799967125,,49,B,2024-05-22_14h08.53.103,gca_discrimination2,2022.2.4,144.0204164360422,
positions.xlsx,stimuli.xlsx,test.xlsx,stimuli/Test1.png,stimuli/Test2.png,stimuli/Social2.png,stimuli/Social1.png,stimuli/Nonsocial2.png,stimuli/Nonsocial1.png,stimuli/Social4.png,stimuli/Social3.png,stimuli/Nonsocial4.png,stimuli/Nonsocial3.png,"(-0.7, 0.5)",cs_neg_s_new,"(-0.7, -0.5)",cs_pos_s,0,0,0,0,,,,,0,83,83,5,,714.8055143000092,l,correct,1.1578315999358892,,49,B,2024-05-22_14h08.53.103,gca_discrimination2,2022.2.4,144.0204164360422,
positions.xlsx,stimuli.xlsx,test.xlsx,stimuli/Test1.png,stimuli/Test2.png,stimuli/Social2.png,stimuli/Social1.png,stimuli/Nonsocial2.png,stimuli/Nonsocial1.png,stimuli/Social4.png,stimuli/Social3.png,stimuli/Nonsocial4.png,stimuli/Nonsocial3.png,"(0.7, 0.5)",cs_pos_ns,"(-0.7, -0.5)",cs_neg_ns,0,0,0,0,,,,,0,84,84,43,,717.9512346000411,l,correct,1.0679820999503136,,49,B,2024-05-22_14h08.53.103,gca_discrimination2,2022.2.4,144.0204164360422,
positions.xlsx,stimuli.xlsx,test.xlsx,stimuli/Test1.png,stimuli/Test2.png,stimuli/Social2.png,stimuli/Social1.png,stimuli/Nonsocial2.png,stimuli/Nonsocial1.png,stimuli/Social4.png,stimuli/Social3.png,stimuli/Nonsocial4.png,stimuli/Nonsocial3.png,"(0.7, -0.5)",cs_neg_s_new,"(0.7, 0.5)",cs_neg_s_new,0,0,0,0,,,,,0,85,85,49,,721.5483417001087,ä,correct,0.9824105000589043,,49,B,2024-05-22_14h08.53.103,gca_discrimination2,2022.2.4,144.0204164360422,
positions.xlsx,stimuli.xlsx,test.xlsx,stimuli/Test1.png,stimuli/Test2.png,stimuli/Social2.png,stimuli/Social1.png,stimuli/Nonsocial2.png,stimuli/Nonsocial1.png,stimuli/Social4.png,stimuli/Social3.png,stimuli/Nonsocial4.png,stimuli/Nonsocial3.png,"(0.7, -0.5)",cs_neg_s_new,"(-0.7, 0.5)",cs_pos_s_new,0,0,0,0,,,,,0,86,86,18,,724.3537271000678,l,correct,0.7942024000221863,,49,B,2024-05-22_14h08.53.103,gca_discrimination2,2022.2.4,144.0204164360422,
positions.xlsx,stimuli.xlsx,test.xlsx,stimuli/Test1.png,stimuli/Test2.png,stimuli/Social2.png,stimuli/Social1.png,stimuli/Nonsocial2.png,stimuli/Nonsocial1.png,stimuli/Social4.png,stimuli/Social3.png,stimuli/Nonsocial4.png,stimuli/Nonsocial3.png,"(0.7, -0.5)",cs_neg_s_new,"(-0.7, -0.5)",cs_neg_s_new,0,0,0,0,,,,,0,87,87,59,,727.7841768000508,ä,correct,0.970692899893038,,49,B,2024-05-22_14h08.53.103,gca_discrimination2,2022.2.4,144.0204164360422,
positions.xlsx,stimuli.xlsx,test.xlsx,stimuli/Test1.png,stimuli/Test2.png,stimuli/Social2.png,stimuli/Social1.png,stimuli/Nonsocial2.png,stimuli/Nonsocial1.png,stimuli/Social4.png,stimuli/Social3.png,stimuli/Nonsocial4.png,stimuli/Nonsocial3.png,"(-0.7, 0.5)",cs_pos_ns_new,"(-0.7, -0.5)",cs_pos_ns_new,0,0,0,0,,,,,0,88,88,79,,731.2909477000358,ä,correct,1.3355170999420807,,49,B,2024-05-22_14h08.53.103,gca_discrimination2,2022.2.4,144.0204164360422,
positions.xlsx,stimuli.xlsx,test.xlsx,stimuli/Test1.png,stimuli/Test2.png,stimuli/Social2.png,stimuli/Social1.png,stimuli/Nonsocial2.png,stimuli/Nonsocial1.png,stimuli/Social4.png,stimuli/Social3.png,stimuli/Nonsocial4.png,stimuli/Nonsocial3.png,"(-0.7, -0.5)",cs_neg_ns,"(-0.7, 0.5)",cs_pos_ns,0,0,0,0,,,,,0,89,89,33,,734.908947100048,l,correct,0.8543722999747843,,49,B,2024-05-22_14h08.53.103,gca_discrimination2,2022.2.4,144.0204164360422,
positions.xlsx,stimuli.xlsx,test.xlsx,stimuli/Test1.png,stimuli/Test2.png,stimuli/Social2.png,stimuli/Social1.png,stimuli/Nonsocial2.png,stimuli/Nonsocial1.png,stimuli/Social4.png,stimuli/Social3.png,stimuli/Nonsocial4.png,stimuli/Nonsocial3.png,"(-0.7, -0.5)",cs_neg_s_new,"(0.7, 0.5)",cs_pos_s_new,0,0,0,0,,,,,0,90,90,20,,738.1725823000306,l,correct,1.7180961000267416,,49,B,2024-05-22_14h08.53.103,gca_discrimination2,2022.2.4,144.0204164360422,
positions.xlsx,stimuli.xlsx,test.xlsx,stimuli/Test1.png,stimuli/Test2.png,stimuli/Social2.png,stimuli/Social1.png,stimuli/Nonsocial2.png,stimuli/Nonsocial1.png,stimuli/Social4.png,stimuli/Social3.png,stimuli/Nonsocial4.png,stimuli/Nonsocial3.png,"(-0.7, -0.5)",cs_pos_ns_new,"(0.7, -0.5)",cs_pos_ns_new,0,0,0,0,,,,,0,91,91,82,,742.5405169000151,ä,correct,1.1501229000277817,,49,B,2024-05-22_14h08.53.103,gca_discrimination2,2022.2.4,144.0204164360422,
positions.xlsx,stimuli.xlsx,test.xlsx,stimuli/Test1.png,stimuli/Test2.png,stimuli/Social2.png,stimuli/Social1.png,stimuli/Nonsocial2.png,stimuli/Nonsocial1.png,stimuli/Social4.png,stimuli/Social3.png,stimuli/Nonsocial4.png,stimuli/Nonsocial3.png,"(0.7, -0.5)",cs_neg_ns_new,"(-0.7, 0.5)",cs_neg_ns_new,0,0,0,0,,,,,0,92,92,93,,745.9014792001108,None,no answer,,,49,B,2024-05-22_14h08.53.103,gca_discrimination2,2022.2.4,144.0204164360422,
positions.xlsx,stimuli.xlsx,test.xlsx,stimuli/Test1.png,stimuli/Test2.png,stimuli/Social2.png,stimuli/Social1.png,stimuli/Nonsocial2.png,stimuli/Nonsocial1.png,stimuli/Social4.png,stimuli/Social3.png,stimuli/Nonsocial4.png,stimuli/Nonsocial3.png,"(0.7, -0.5)",cs_neg_s,"(-0.7, -0.5)",cs_pos_s_new,0,0,0,0,,,,,0,93,93,9,,749.7624404000817,l,correct,1.232589100021869,,49,B,2024-05-22_14h08.53.103,gca_discrimination2,2022.2.4,144.0204164360422,
positions.xlsx,stimuli.xlsx,test.xlsx,stimuli/Test1.png,stimuli/Test2.png,stimuli/Social2.png,stimuli/Social1.png,stimuli/Nonsocial2.png,stimuli/Nonsocial1.png,stimuli/Social4.png,stimuli/Social3.png,stimuli/Nonsocial4.png,stimuli/Nonsocial3.png,"(-0.7, 0.5)",cs_neg_ns,"(0.7, 0.5)",cs_pos_ns,0,0,0,0,,,,,0,94,94,38,,753.470622300054,l,correct,1.3487377999117598,,49,B,2024-05-22_14h08.53.103,gca_discrimination2,2022.2.4,144.0204164360422,
positions.xlsx,stimuli.xlsx,test.xlsx,stimuli/Test1.png,stimuli/Test2.png,stimuli/Social2.png,stimuli/Social1.png,stimuli/Nonsocial2.png,stimuli/Nonsocial1.png,stimuli/Social4.png,stimuli/Social3.png,stimuli/Nonsocial4.png,stimuli/Nonsocial3.png,"(0.7, -0.5)",cs_pos_ns_new,"(0.7, 0.5)",cs_pos_ns,0,0,0,0,,,,,0,95,95,34,,757.401014000061,ä,wrong,1.8661208999110386,,49,B,2024-05-22_14h08.53.103,gca_discrimination2,2022.2.4,144.0204164360422,
