posFile,stimFile,testFile,test1,test2,cs_neg_s,cs_pos_s,cs_neg_ns,cs_pos_ns,cs_neg_s_new,cs_pos_s_new,cs_neg_ns_new,cs_pos_ns_new,position1,stim1,position2,stim2,blocks.thisRepN,blocks.thisTrialN,blocks.thisN,blocks.thisIndex,learning_trials.thisRepN,learning_trials.thisTrialN,learning_trials.thisN,learning_trials.thisIndex,trials.thisRepN,trials.thisTrialN,trials.thisN,trials.thisIndex,textStart.started,key.started,key.keys,key.rt,correctness,textStartTask.started,participant,group,date,expName,psychopyVersion,frameRate,
positions.xlsx,stimuli.xlsx,test.xlsx,stimuli/Test1.png,stimuli/Test2.png,stimuli/Social2.png,stimuli/Social1.png,stimuli/Nonsocial2.png,stimuli/Nonsocial1.png,stimuli/Social4.png,stimuli/Social3.png,stimuli/Nonsocial4.png,stimuli/Nonsocial3.png,"(0.7, -0.5)",test1,"(0.7, 0.5)",test1,0,0,0,0,0,0,0,1,,,,,10.911467700003413,42.396315600009984,l,0.9459829999977956,correct,,26,B,2024-05-01_11h19.35.770,gca_discrimination2,2022.2.4,143.7595420529017,
positions.xlsx,stimuli.xlsx,test.xlsx,stimuli/Test1.png,stimuli/Test2.png,stimuli/Social2.png,stimuli/Social1.png,stimuli/Nonsocial2.png,stimuli/Nonsocial1.png,stimuli/Social4.png,stimuli/Social3.png,stimuli/Nonsocial4.png,stimuli/Nonsocial3.png,"(-0.7, 0.5)",test2,"(0.7, 0.5)",test1,0,0,0,0,0,1,1,2,,,,,,47.46555450001324,ä,0.6201345000008587,correct,,26,B,2024-05-01_11h19.35.770,gca_discrimination2,2022.2.4,143.7595420529017,
positions.xlsx,stimuli.xlsx,test.xlsx,stimuli/Test1.png,stimuli/Test2.png,stimuli/Social2.png,stimuli/Social1.png,stimuli/Nonsocial2.png,stimuli/Nonsocial1.png,stimuli/Social4.png,stimuli/Social3.png,stimuli/Nonsocial4.png,stimuli/Nonsocial3.png,"(-0.7, -0.5)",test1,"(0.7, 0.5)",test1,0,0,0,0,0,2,2,9,,,,,,52.73620180001308,l,0.5256016999919666,correct,,26,B,2024-05-01_11h19.35.770,gca_discrimination2,2022.2.4,143.7595420529017,
positions.xlsx,stimuli.xlsx,test.xlsx,stimuli/Test1.png,stimuli/Test2.png,stimuli/Social2.png,stimuli/Social1.png,stimuli/Nonsocial2.png,stimuli/Nonsocial1.png,stimuli/Social4.png,stimuli/Social3.png,stimuli/Nonsocial4.png,stimuli/Nonsocial3.png,"(-0.7, -0.5)",test1,"(0.7, -0.5)",test2,0,0,0,0,0,3,3,3,,,,,,57.15957880001224,ä,0.45505549998779316,correct,,26,B,2024-05-01_11h19.35.770,gca_discrimination2,2022.2.4,143.7595420529017,
positions.xlsx,stimuli.xlsx,test.xlsx,stimuli/Test1.png,stimuli/Test2.png,stimuli/Social2.png,stimuli/Social1.png,stimuli/Nonsocial2.png,stimuli/Nonsocial1.png,stimuli/Social4.png,stimuli/Social3.png,stimuli/Nonsocial4.png,stimuli/Nonsocial3.png,"(-0.7, 0.5)",test1,"(0.7, 0.5)",test1,0,0,0,0,0,4,4,6,,,,,,61.6733086000022,l,0.566073799986043,correct,,26,B,2024-05-01_11h19.35.770,gca_discrimination2,2022.2.4,143.7595420529017,
positions.xlsx,stimuli.xlsx,test.xlsx,stimuli/Test1.png,stimuli/Test2.png,stimuli/Social2.png,stimuli/Social1.png,stimuli/Nonsocial2.png,stimuli/Nonsocial1.png,stimuli/Social4.png,stimuli/Social3.png,stimuli/Nonsocial4.png,stimuli/Nonsocial3.png,"(-0.7, 0.5)",test2,"(0.7, -0.5)",test2,0,0,0,0,0,5,5,8,,,,,,66.58282809999946,l,0.6068845999980113,correct,,26,B,2024-05-01_11h19.35.770,gca_discrimination2,2022.2.4,143.7595420529017,
positions.xlsx,stimuli.xlsx,test.xlsx,stimuli/Test1.png,stimuli/Test2.png,stimuli/Social2.png,stimuli/Social1.png,stimuli/Nonsocial2.png,stimuli/Nonsocial1.png,stimuli/Social4.png,stimuli/Social3.png,stimuli/Nonsocial4.png,stimuli/Nonsocial3.png,"(0.7, -0.5)",test1,"(0.7, 0.5)",test2,0,0,0,0,0,6,6,4,,,,,,71.67290309999953,ä,0.38074540000525303,correct,,26,B,2024-05-01_11h19.35.770,gca_discrimination2,2022.2.4,143.7595420529017,
positions.xlsx,stimuli.xlsx,test.xlsx,stimuli/Test1.png,stimuli/Test2.png,stimuli/Social2.png,stimuli/Social1.png,stimuli/Nonsocial2.png,stimuli/Nonsocial1.png,stimuli/Social4.png,stimuli/Social3.png,stimuli/Nonsocial4.png,stimuli/Nonsocial3.png,"(-0.7, -0.5)",test1,"(0.7, -0.5)",test2,0,0,0,0,0,7,7,0,,,,,,76.42272149999917,ä,0.535157899998012,correct,,26,B,2024-05-01_11h19.35.770,gca_discrimination2,2022.2.4,143.7595420529017,
positions.xlsx,stimuli.xlsx,test.xlsx,stimuli/Test1.png,stimuli/Test2.png,stimuli/Social2.png,stimuli/Social1.png,stimuli/Nonsocial2.png,stimuli/Nonsocial1.png,stimuli/Social4.png,stimuli/Social3.png,stimuli/Nonsocial4.png,stimuli/Nonsocial3.png,"(-0.7, -0.5)",test2,"(0.7, -0.5)",test1,0,0,0,0,0,8,8,5,,,,,,81.54748490000202,ä,0.34601629999815486,correct,,26,B,2024-05-01_11h19.35.770,gca_discrimination2,2022.2.4,143.7595420529017,
positions.xlsx,stimuli.xlsx,test.xlsx,stimuli/Test1.png,stimuli/Test2.png,stimuli/Social2.png,stimuli/Social1.png,stimuli/Nonsocial2.png,stimuli/Nonsocial1.png,stimuli/Social4.png,stimuli/Social3.png,stimuli/Nonsocial4.png,stimuli/Nonsocial3.png,"(-0.7, -0.5)",test2,"(0.7, -0.5)",test1,0,0,0,0,0,9,9,7,,,,,,85.84593710000627,ä,0.5763562000065576,correct,,26,B,2024-05-01_11h19.35.770,gca_discrimination2,2022.2.4,143.7595420529017,
positions.xlsx,stimuli.xlsx,test.xlsx,stimuli/Test1.png,stimuli/Test2.png,stimuli/Social2.png,stimuli/Social1.png,stimuli/Nonsocial2.png,stimuli/Nonsocial1.png,stimuli/Social4.png,stimuli/Social3.png,stimuli/Nonsocial4.png,stimuli/Nonsocial3.png,"(0.7, 0.5)",cs_neg_s_new,"(-0.7, 0.5)",cs_neg_s_new,0,0,0,0,,,,,0,0,0,66,,117.55297930000233,l,0.9733060999860754,correct,89.06804250000278,26,B,2024-05-01_11h19.35.770,gca_discrimination2,2022.2.4,143.7595420529017,
positions.xlsx,stimuli.xlsx,test.xlsx,stimuli/Test1.png,stimuli/Test2.png,stimuli/Social2.png,stimuli/Social1.png,stimuli/Nonsocial2.png,stimuli/Nonsocial1.png,stimuli/Social4.png,stimuli/Social3.png,stimuli/Nonsocial4.png,stimuli/Nonsocial3.png,"(-0.7, -0.5)",cs_neg_ns_new,"(-0.7, 0.5)",cs_neg_ns_new,0,0,0,0,,,,,0,1,1,85,,120.9417373000033,l,0.615973899999517,correct,,26,B,2024-05-01_11h19.35.770,gca_discrimination2,2022.2.4,143.7595420529017,
positions.xlsx,stimuli.xlsx,test.xlsx,stimuli/Test1.png,stimuli/Test2.png,stimuli/Social2.png,stimuli/Social1.png,stimuli/Nonsocial2.png,stimuli/Nonsocial1.png,stimuli/Social4.png,stimuli/Social3.png,stimuli/Nonsocial4.png,stimuli/Nonsocial3.png,"(0.7, 0.5)",cs_neg_ns_new,"(0.7, -0.5)",cs_pos_ns,0,0,0,0,,,,,0,2,2,24,,123.56662890000734,ä,0.536580200001481,correct,,26,B,2024-05-01_11h19.35.770,gca_discrimination2,2022.2.4,143.7595420529017,
positions.xlsx,stimuli.xlsx,test.xlsx,stimuli/Test1.png,stimuli/Test2.png,stimuli/Social2.png,stimuli/Social1.png,stimuli/Nonsocial2.png,stimuli/Nonsocial1.png,stimuli/Social4.png,stimuli/Social3.png,stimuli/Nonsocial4.png,stimuli/Nonsocial3.png,"(-0.7, 0.5)",cs_pos_s,"(0.7, 0.5)",cs_neg_s_new,0,0,0,0,,,,,0,3,3,8,,125.96932240000751,ä,0.6125536000035936,correct,,26,B,2024-05-01_11h19.35.770,gca_discrimination2,2022.2.4,143.7595420529017,
positions.xlsx,stimuli.xlsx,test.xlsx,stimuli/Test1.png,stimuli/Test2.png,stimuli/Social2.png,stimuli/Social1.png,stimuli/Nonsocial2.png,stimuli/Nonsocial1.png,stimuli/Social4.png,stimuli/Social3.png,stimuli/Nonsocial4.png,stimuli/Nonsocial3.png,"(0.7, -0.5)",cs_pos_ns_new,"(-0.7, 0.5)",cs_pos_ns_new,0,0,0,0,,,,,0,4,4,81,,129.03862840001239,l,0.5032345999934478,correct,,26,B,2024-05-01_11h19.35.770,gca_discrimination2,2022.2.4,143.7595420529017,
positions.xlsx,stimuli.xlsx,test.xlsx,stimuli/Test1.png,stimuli/Test2.png,stimuli/Social2.png,stimuli/Social1.png,stimuli/Nonsocial2.png,stimuli/Nonsocial1.png,stimuli/Social4.png,stimuli/Social3.png,stimuli/Nonsocial4.png,stimuli/Nonsocial3.png,"(-0.7, 0.5)",cs_neg_s_new,"(0.7, 0.5)",cs_pos_s_new,0,0,0,0,,,,,0,5,5,20,,131.53158420001273,ä,0.5461925999843515,correct,,26,B,2024-05-01_11h19.35.770,gca_discrimination2,2022.2.4,143.7595420529017,
positions.xlsx,stimuli.xlsx,test.xlsx,stimuli/Test1.png,stimuli/Test2.png,stimuli/Social2.png,stimuli/Social1.png,stimuli/Nonsocial2.png,stimuli/Nonsocial1.png,stimuli/Social4.png,stimuli/Social3.png,stimuli/Nonsocial4.png,stimuli/Nonsocial3.png,"(0.7, 0.5)",cs_neg_ns_new,"(-0.7, -0.5)",cs_pos_ns_new,0,0,0,0,,,,,0,6,6,35,,134.35786210000515,l,0.5203487999970093,wrong,,26,B,2024-05-01_11h19.35.770,gca_discrimination2,2022.2.4,143.7595420529017,
positions.xlsx,stimuli.xlsx,test.xlsx,stimuli/Test1.png,stimuli/Test2.png,stimuli/Social2.png,stimuli/Social1.png,stimuli/Nonsocial2.png,stimuli/Nonsocial1.png,stimuli/Social4.png,stimuli/Social3.png,stimuli/Nonsocial4.png,stimuli/Nonsocial3.png,"(-0.7, -0.5)",cs_neg_s,"(0.7, 0.5)",cs_neg_s,0,0,0,0,,,,,0,7,7,63,,137.5660487999994,l,0.8248770000063814,correct,,26,B,2024-05-01_11h19.35.770,gca_discrimination2,2022.2.4,143.7595420529017,
positions.xlsx,stimuli.xlsx,test.xlsx,stimuli/Test1.png,stimuli/Test2.png,stimuli/Social2.png,stimuli/Social1.png,stimuli/Nonsocial2.png,stimuli/Nonsocial1.png,stimuli/Social4.png,stimuli/Social3.png,stimuli/Nonsocial4.png,stimuli/Nonsocial3.png,"(0.7, 0.5)",cs_neg_ns_new,"(-0.7, 0.5)",cs_neg_ns_new,0,0,0,0,,,,,0,8,8,80,,141.19093270000303,l,0.46344849999877624,correct,,26,B,2024-05-01_11h19.35.770,gca_discrimination2,2022.2.4,143.7595420529017,
positions.xlsx,stimuli.xlsx,test.xlsx,stimuli/Test1.png,stimuli/Test2.png,stimuli/Social2.png,stimuli/Social1.png,stimuli/Nonsocial2.png,stimuli/Nonsocial1.png,stimuli/Social4.png,stimuli/Social3.png,stimuli/Nonsocial4.png,stimuli/Nonsocial3.png,"(-0.7, -0.5)",cs_pos_s_new,"(0.7, -0.5)",cs_pos_s_new,0,0,0,0,,,,,0,9,9,69,,143.55192280000483,l,0.7749501000071177,correct,,26,B,2024-05-01_11h19.35.770,gca_discrimination2,2022.2.4,143.7595420529017,
positions.xlsx,stimuli.xlsx,test.xlsx,stimuli/Test1.png,stimuli/Test2.png,stimuli/Social2.png,stimuli/Social1.png,stimuli/Nonsocial2.png,stimuli/Nonsocial1.png,stimuli/Social4.png,stimuli/Social3.png,stimuli/Nonsocial4.png,stimuli/Nonsocial3.png,"(0.7, 0.5)",cs_pos_ns_new,"(0.7, -0.5)",cs_neg_ns,0,0,0,0,,,,,0,10,10,37,,147.10039170000528,ä,0.6971442999929423,correct,,26,B,2024-05-01_11h19.35.770,gca_discrimination2,2022.2.4,143.7595420529017,
positions.xlsx,stimuli.xlsx,test.xlsx,stimuli/Test1.png,stimuli/Test2.png,stimuli/Social2.png,stimuli/Social1.png,stimuli/Nonsocial2.png,stimuli/Nonsocial1.png,stimuli/Social4.png,stimuli/Social3.png,stimuli/Nonsocial4.png,stimuli/Nonsocial3.png,"(0.7, -0.5)",cs_neg_s,"(0.7, 0.5)",cs_neg_s,0,0,0,0,,,,,0,11,11,70,,150.47526260001177,ä,0.7700923999946099,wrong,,26,B,2024-05-01_11h19.35.770,gca_discrimination2,2022.2.4,143.7595420529017,
positions.xlsx,stimuli.xlsx,test.xlsx,stimuli/Test1.png,stimuli/Test2.png,stimuli/Social2.png,stimuli/Social1.png,stimuli/Nonsocial2.png,stimuli/Nonsocial1.png,stimuli/Social4.png,stimuli/Social3.png,stimuli/Nonsocial4.png,stimuli/Nonsocial3.png,"(0.7, -0.5)",cs_pos_ns,"(0.7, 0.5)",cs_pos_ns,0,0,0,0,,,,,0,12,12,89,,153.6348377000104,l,0.5225104999990435,correct,,26,B,2024-05-01_11h19.35.770,gca_discrimination2,2022.2.4,143.7595420529017,
positions.xlsx,stimuli.xlsx,test.xlsx,stimuli/Test1.png,stimuli/Test2.png,stimuli/Social2.png,stimuli/Social1.png,stimuli/Nonsocial2.png,stimuli/Nonsocial1.png,stimuli/Social4.png,stimuli/Social3.png,stimuli/Nonsocial4.png,stimuli/Nonsocial3.png,"(0.7, 0.5)",cs_neg_s,"(-0.7, -0.5)",cs_neg_s_new,0,0,0,0,,,,,0,13,13,3,,156.83611070000916,ä,0.6421229999978095,correct,,26,B,2024-05-01_11h19.35.770,gca_discrimination2,2022.2.4,143.7595420529017,
positions.xlsx,stimuli.xlsx,test.xlsx,stimuli/Test1.png,stimuli/Test2.png,stimuli/Social2.png,stimuli/Social1.png,stimuli/Nonsocial2.png,stimuli/Nonsocial1.png,stimuli/Social4.png,stimuli/Social3.png,stimuli/Nonsocial4.png,stimuli/Nonsocial3.png,"(-0.7, -0.5)",cs_neg_s_new,"(0.7, -0.5)",cs_pos_s_new,0,0,0,0,,,,,0,14,14,13,,159.29434440001205,ä,0.6155928999942262,correct,,26,B,2024-05-01_11h19.35.770,gca_discrimination2,2022.2.4,143.7595420529017,
positions.xlsx,stimuli.xlsx,test.xlsx,stimuli/Test1.png,stimuli/Test2.png,stimuli/Social2.png,stimuli/Social1.png,stimuli/Nonsocial2.png,stimuli/Nonsocial1.png,stimuli/Social4.png,stimuli/Social3.png,stimuli/Nonsocial4.png,stimuli/Nonsocial3.png,"(0.7, -0.5)",cs_pos_ns,"(-0.7, -0.5)",cs_pos_ns,0,0,0,0,,,,,0,15,15,84,,162.66920070000924,l,0.5370825999998488,correct,,26,B,2024-05-01_11h19.35.770,gca_discrimination2,2022.2.4,143.7595420529017,
positions.xlsx,stimuli.xlsx,test.xlsx,stimuli/Test1.png,stimuli/Test2.png,stimuli/Social2.png,stimuli/Social1.png,stimuli/Nonsocial2.png,stimuli/Nonsocial1.png,stimuli/Social4.png,stimuli/Social3.png,stimuli/Nonsocial4.png,stimuli/Nonsocial3.png,"(-0.7, -0.5)",cs_neg_s_new,"(0.7, -0.5)",cs_pos_s,0,0,0,0,,,,,0,16,16,19,,165.03021830000216,ä,0.5446900999959325,correct,,26,B,2024-05-01_11h19.35.770,gca_discrimination2,2022.2.4,143.7595420529017,
positions.xlsx,stimuli.xlsx,test.xlsx,stimuli/Test1.png,stimuli/Test2.png,stimuli/Social2.png,stimuli/Social1.png,stimuli/Nonsocial2.png,stimuli/Nonsocial1.png,stimuli/Social4.png,stimuli/Social3.png,stimuli/Nonsocial4.png,stimuli/Nonsocial3.png,"(0.7, -0.5)",cs_pos_ns_new,"(-0.7, 0.5)",cs_pos_ns,0,0,0,0,,,,,0,17,17,47,,167.7731635000091,ä,0.5532919999968726,correct,,26,B,2024-05-01_11h19.35.770,gca_discrimination2,2022.2.4,143.7595420529017,
positions.xlsx,stimuli.xlsx,test.xlsx,stimuli/Test1.png,stimuli/Test2.png,stimuli/Social2.png,stimuli/Social1.png,stimuli/Nonsocial2.png,stimuli/Nonsocial1.png,stimuli/Social4.png,stimuli/Social3.png,stimuli/Nonsocial4.png,stimuli/Nonsocial3.png,"(0.7, -0.5)",cs_neg_ns,"(-0.7, -0.5)",cs_neg_ns,0,0,0,0,,,,,0,18,18,73,,170.70361370001046,l,0.5261008999950718,correct,,26,B,2024-05-01_11h19.35.770,gca_discrimination2,2022.2.4,143.7595420529017,
positions.xlsx,stimuli.xlsx,test.xlsx,stimuli/Test1.png,stimuli/Test2.png,stimuli/Social2.png,stimuli/Social1.png,stimuli/Nonsocial2.png,stimuli/Nonsocial1.png,stimuli/Social4.png,stimuli/Social3.png,stimuli/Nonsocial4.png,stimuli/Nonsocial3.png,"(-0.7, 0.5)",cs_neg_s_new,"(0.7, -0.5)",cs_neg_s_new,0,0,0,0,,,,,0,19,19,51,,173.32155640001292,l,0.5887534999928903,correct,,26,B,2024-05-01_11h19.35.770,gca_discrimination2,2022.2.4,143.7595420529017,
positions.xlsx,stimuli.xlsx,test.xlsx,stimuli/Test1.png,stimuli/Test2.png,stimuli/Social2.png,stimuli/Social1.png,stimuli/Nonsocial2.png,stimuli/Nonsocial1.png,stimuli/Social4.png,stimuli/Social3.png,stimuli/Nonsocial4.png,stimuli/Nonsocial3.png,"(0.7, 0.5)",cs_pos_ns,"(-0.7, -0.5)",cs_pos_ns_new,0,0,0,0,,,,,0,20,20,46,,176.654769700006,l,0.6396506000019144,wrong,,26,B,2024-05-01_11h19.35.770,gca_discrimination2,2022.2.4,143.7595420529017,
positions.xlsx,stimuli.xlsx,test.xlsx,stimuli/Test1.png,stimuli/Test2.png,stimuli/Social2.png,stimuli/Social1.png,stimuli/Nonsocial2.png,stimuli/Nonsocial1.png,stimuli/Social4.png,stimuli/Social3.png,stimuli/Nonsocial4.png,stimuli/Nonsocial3.png,"(-0.7, -0.5)",cs_pos_s,"(-0.7, 0.5)",cs_pos_s,0,0,0,0,,,,,0,21,21,59,,179.77962830000615,l,0.5061227999976836,correct,,26,B,2024-05-01_11h19.35.770,gca_discrimination2,2022.2.4,143.7595420529017,
positions.xlsx,stimuli.xlsx,test.xlsx,stimuli/Test1.png,stimuli/Test2.png,stimuli/Social2.png,stimuli/Social1.png,stimuli/Nonsocial2.png,stimuli/Nonsocial1.png,stimuli/Social4.png,stimuli/Social3.png,stimuli/Nonsocial4.png,stimuli/Nonsocial3.png,"(-0.7, -0.5)",cs_neg_ns,"(-0.7, 0.5)",cs_neg_ns_new,0,0,0,0,,,,,0,22,22,39,,182.55034539999906,l,0.6395209999900544,wrong,,26,B,2024-05-01_11h19.35.770,gca_discrimination2,2022.2.4,143.7595420529017,
positions.xlsx,stimuli.xlsx,test.xlsx,stimuli/Test1.png,stimuli/Test2.png,stimuli/Social2.png,stimuli/Social1.png,stimuli/Nonsocial2.png,stimuli/Nonsocial1.png,stimuli/Social4.png,stimuli/Social3.png,stimuli/Nonsocial4.png,stimuli/Nonsocial3.png,"(-0.7, -0.5)",cs_pos_s_new,"(-0.7, 0.5)",cs_pos_s,0,0,0,0,,,,,0,23,23,1,,185.34884479999891,l,0.49664160000975244,wrong,,26,B,2024-05-01_11h19.35.770,gca_discrimination2,2022.2.4,143.7595420529017,
positions.xlsx,stimuli.xlsx,test.xlsx,stimuli/Test1.png,stimuli/Test2.png,stimuli/Social2.png,stimuli/Social1.png,stimuli/Nonsocial2.png,stimuli/Nonsocial1.png,stimuli/Social4.png,stimuli/Social3.png,stimuli/Nonsocial4.png,stimuli/Nonsocial3.png,"(-0.7, -0.5)",cs_neg_s,"(0.7, 0.5)",cs_pos_s_new,0,0,0,0,,,,,0,24,24,7,,188.49454520001018,ä,0.6875679999939166,correct,,26,B,2024-05-01_11h19.35.770,gca_discrimination2,2022.2.4,143.7595420529017,
positions.xlsx,stimuli.xlsx,test.xlsx,stimuli/Test1.png,stimuli/Test2.png,stimuli/Social2.png,stimuli/Social1.png,stimuli/Nonsocial2.png,stimuli/Nonsocial1.png,stimuli/Social4.png,stimuli/Social3.png,stimuli/Nonsocial4.png,stimuli/Nonsocial3.png,"(0.7, 0.5)",cs_neg_ns,"(-0.7, -0.5)",cs_pos_ns,0,0,0,0,,,,,0,25,25,25,,191.70969290001085,ä,0.5531540999945719,correct,,26,B,2024-05-01_11h19.35.770,gca_discrimination2,2022.2.4,143.7595420529017,
positions.xlsx,stimuli.xlsx,test.xlsx,stimuli/Test1.png,stimuli/Test2.png,stimuli/Social2.png,stimuli/Social1.png,stimuli/Nonsocial2.png,stimuli/Nonsocial1.png,stimuli/Social4.png,stimuli/Social3.png,stimuli/Nonsocial4.png,stimuli/Nonsocial3.png,"(-0.7, -0.5)",cs_neg_ns,"(0.7, -0.5)",cs_neg_ns,0,0,0,0,,,,,0,26,26,92,,194.28598320001038,ä,0.575703299997258,wrong,,26,B,2024-05-01_11h19.35.770,gca_discrimination2,2022.2.4,143.7595420529017,
positions.xlsx,stimuli.xlsx,test.xlsx,stimuli/Test1.png,stimuli/Test2.png,stimuli/Social2.png,stimuli/Social1.png,stimuli/Nonsocial2.png,stimuli/Nonsocial1.png,stimuli/Social4.png,stimuli/Social3.png,stimuli/Nonsocial4.png,stimuli/Nonsocial3.png,"(-0.7, 0.5)",cs_neg_s_new,"(0.7, -0.5)",cs_neg_s,0,0,0,0,,,,,0,27,27,6,,197.62613330000022,ä,0.38820750000013504,correct,,26,B,2024-05-01_11h19.35.770,gca_discrimination2,2022.2.4,143.7595420529017,
positions.xlsx,stimuli.xlsx,test.xlsx,stimuli/Test1.png,stimuli/Test2.png,stimuli/Social2.png,stimuli/Social1.png,stimuli/Nonsocial2.png,stimuli/Nonsocial1.png,stimuli/Social4.png,stimuli/Social3.png,stimuli/Nonsocial4.png,stimuli/Nonsocial3.png,"(-0.7, 0.5)",cs_pos_ns_new,"(-0.7, -0.5)",cs_neg_ns_new,0,0,0,0,,,,,0,28,28,26,,200.81348490000528,l,0.38554370000201743,wrong,,26,B,2024-05-01_11h19.35.770,gca_discrimination2,2022.2.4,143.7595420529017,
positions.xlsx,stimuli.xlsx,test.xlsx,stimuli/Test1.png,stimuli/Test2.png,stimuli/Social2.png,stimuli/Social1.png,stimuli/Nonsocial2.png,stimuli/Nonsocial1.png,stimuli/Social4.png,stimuli/Social3.png,stimuli/Nonsocial4.png,stimuli/Nonsocial3.png,"(-0.7, 0.5)",cs_neg_s,"(-0.7, -0.5)",cs_pos_s_new,0,0,0,0,,,,,0,29,29,18,,203.5077917000017,l,0.8575826000014786,wrong,,26,B,2024-05-01_11h19.35.770,gca_discrimination2,2022.2.4,143.7595420529017,
positions.xlsx,stimuli.xlsx,test.xlsx,stimuli/Test1.png,stimuli/Test2.png,stimuli/Social2.png,stimuli/Social1.png,stimuli/Nonsocial2.png,stimuli/Nonsocial1.png,stimuli/Social4.png,stimuli/Social3.png,stimuli/Nonsocial4.png,stimuli/Nonsocial3.png,"(0.7, 0.5)",cs_pos_ns,"(-0.7, 0.5)",cs_pos_ns,0,0,0,0,,,,,0,30,30,87,,206.53548600000795,l,0.8465608999977121,correct,,26,B,2024-05-01_11h19.35.770,gca_discrimination2,2022.2.4,143.7595420529017,
positions.xlsx,stimuli.xlsx,test.xlsx,stimuli/Test1.png,stimuli/Test2.png,stimuli/Social2.png,stimuli/Social1.png,stimuli/Nonsocial2.png,stimuli/Nonsocial1.png,stimuli/Social4.png,stimuli/Social3.png,stimuli/Nonsocial4.png,stimuli/Nonsocial3.png,"(0.7, 0.5)",cs_pos_ns_new,"(0.7, -0.5)",cs_pos_ns_new,0,0,0,0,,,,,0,31,31,78,,209.9797862000123,l,0.4669673999887891,correct,,26,B,2024-05-01_11h19.35.770,gca_discrimination2,2022.2.4,143.7595420529017,
positions.xlsx,stimuli.xlsx,test.xlsx,stimuli/Test1.png,stimuli/Test2.png,stimuli/Social2.png,stimuli/Social1.png,stimuli/Nonsocial2.png,stimuli/Nonsocial1.png,stimuli/Social4.png,stimuli/Social3.png,stimuli/Nonsocial4.png,stimuli/Nonsocial3.png,"(0.7, -0.5)",cs_neg_ns_new,"(0.7, 0.5)",cs_neg_ns,0,0,0,0,,,,,0,32,32,31,,213.00046350000775,ä,0.5569157999998424,correct,,26,B,2024-05-01_11h19.35.770,gca_discrimination2,2022.2.4,143.7595420529017,
positions.xlsx,stimuli.xlsx,test.xlsx,stimuli/Test1.png,stimuli/Test2.png,stimuli/Social2.png,stimuli/Social1.png,stimuli/Nonsocial2.png,stimuli/Nonsocial1.png,stimuli/Social4.png,stimuli/Social3.png,stimuli/Nonsocial4.png,stimuli/Nonsocial3.png,"(-0.7, 0.5)",cs_pos_ns_new,"(0.7, 0.5)",cs_pos_ns_new,0,0,0,0,,,,,0,33,33,75,,215.79899530000694,ä,0.5432372000068426,wrong,,26,B,2024-05-01_11h19.35.770,gca_discrimination2,2022.2.4,143.7595420529017,
positions.xlsx,stimuli.xlsx,test.xlsx,stimuli/Test1.png,stimuli/Test2.png,stimuli/Social2.png,stimuli/Social1.png,stimuli/Nonsocial2.png,stimuli/Nonsocial1.png,stimuli/Social4.png,stimuli/Social3.png,stimuli/Nonsocial4.png,stimuli/Nonsocial3.png,"(-0.7, 0.5)",cs_pos_s_new,"(-0.7, -0.5)",cs_pos_s_new,0,0,0,0,,,,,0,34,34,64,,218.39610870000615,l,0.5780386000114959,correct,,26,B,2024-05-01_11h19.35.770,gca_discrimination2,2022.2.4,143.7595420529017,
positions.xlsx,stimuli.xlsx,test.xlsx,stimuli/Test1.png,stimuli/Test2.png,stimuli/Social2.png,stimuli/Social1.png,stimuli/Nonsocial2.png,stimuli/Nonsocial1.png,stimuli/Social4.png,stimuli/Social3.png,stimuli/Nonsocial4.png,stimuli/Nonsocial3.png,"(-0.7, 0.5)",cs_neg_s_new,"(-0.7, -0.5)",cs_neg_s_new,0,0,0,0,,,,,0,35,35,68,,221.6668151000049,l,0.49926440000126604,correct,,26,B,2024-05-01_11h19.35.770,gca_discrimination2,2022.2.4,143.7595420529017,
positions.xlsx,stimuli.xlsx,test.xlsx,stimuli/Test1.png,stimuli/Test2.png,stimuli/Social2.png,stimuli/Social1.png,stimuli/Nonsocial2.png,stimuli/Nonsocial1.png,stimuli/Social4.png,stimuli/Social3.png,stimuli/Nonsocial4.png,stimuli/Nonsocial3.png,"(-0.7, -0.5)",cs_pos_s_new,"(-0.7, 0.5)",cs_pos_s_new,0,0,0,0,,,,,0,36,36,67,,224.92363080001087,l,0.41147419999470003,correct,,26,B,2024-05-01_11h19.35.770,gca_discrimination2,2022.2.4,143.7595420529017,
positions.xlsx,stimuli.xlsx,test.xlsx,stimuli/Test1.png,stimuli/Test2.png,stimuli/Social2.png,stimuli/Social1.png,stimuli/Nonsocial2.png,stimuli/Nonsocial1.png,stimuli/Social4.png,stimuli/Social3.png,stimuli/Nonsocial4.png,stimuli/Nonsocial3.png,"(0.7, 0.5)",cs_neg_s_new,"(0.7, -0.5)",cs_pos_s,0,0,0,0,,,,,0,37,37,11,,227.89574190000712,ä,0.4140795999992406,correct,,26,B,2024-05-01_11h19.35.770,gca_discrimination2,2022.2.4,143.7595420529017,
positions.xlsx,stimuli.xlsx,test.xlsx,stimuli/Test1.png,stimuli/Test2.png,stimuli/Social2.png,stimuli/Social1.png,stimuli/Nonsocial2.png,stimuli/Nonsocial1.png,stimuli/Social4.png,stimuli/Social3.png,stimuli/Nonsocial4.png,stimuli/Nonsocial3.png,"(0.7, -0.5)",cs_pos_s,"(-0.7, 0.5)",cs_pos_s,0,0,0,0,,,,,0,38,38,61,,231.0761518000072,l,0.46526080000330694,correct,,26,B,2024-05-01_11h19.35.770,gca_discrimination2,2022.2.4,143.7595420529017,
positions.xlsx,stimuli.xlsx,test.xlsx,stimuli/Test1.png,stimuli/Test2.png,stimuli/Social2.png,stimuli/Social1.png,stimuli/Nonsocial2.png,stimuli/Nonsocial1.png,stimuli/Social4.png,stimuli/Social3.png,stimuli/Nonsocial4.png,stimuli/Nonsocial3.png,"(-0.7, 0.5)",cs_neg_s,"(-0.7, -0.5)",cs_pos_s,0,0,0,0,,,,,0,39,39,5,,233.36076570001023,ä,0.7091590999916662,correct,,26,B,2024-05-01_11h19.35.770,gca_discrimination2,2022.2.4,143.7595420529017,
positions.xlsx,stimuli.xlsx,test.xlsx,stimuli/Test1.png,stimuli/Test2.png,stimuli/Social2.png,stimuli/Social1.png,stimuli/Nonsocial2.png,stimuli/Nonsocial1.png,stimuli/Social4.png,stimuli/Social3.png,stimuli/Nonsocial4.png,stimuli/Nonsocial3.png,"(0.7, -0.5)",cs_pos_s_new,"(0.7, 0.5)",cs_pos_s,0,0,0,0,,,,,0,40,40,4,,236.18012580000504,ä,1.7534909000096377,correct,,26,B,2024-05-01_11h19.35.770,gca_discrimination2,2022.2.4,143.7595420529017,
positions.xlsx,stimuli.xlsx,test.xlsx,stimuli/Test1.png,stimuli/Test2.png,stimuli/Social2.png,stimuli/Social1.png,stimuli/Nonsocial2.png,stimuli/Nonsocial1.png,stimuli/Social4.png,stimuli/Social3.png,stimuli/Nonsocial4.png,stimuli/Nonsocial3.png,"(0.7, -0.5)",cs_pos_s,"(-0.7, -0.5)",cs_pos_s_new,0,0,0,0,,,,,0,41,41,22,,239.87443780001195,l,0.796772100002272,wrong,,26,B,2024-05-01_11h19.35.770,gca_discrimination2,2022.2.4,143.7595420529017,
positions.xlsx,stimuli.xlsx,test.xlsx,stimuli/Test1.png,stimuli/Test2.png,stimuli/Social2.png,stimuli/Social1.png,stimuli/Nonsocial2.png,stimuli/Nonsocial1.png,stimuli/Social4.png,stimuli/Social3.png,stimuli/Nonsocial4.png,stimuli/Nonsocial3.png,"(-0.7, 0.5)",cs_pos_ns_new,"(-0.7, -0.5)",cs_neg_ns,0,0,0,0,,,,,0,42,42,30,,243.3673192999995,l,0.8142763000068953,wrong,,26,B,2024-05-01_11h19.35.770,gca_discrimination2,2022.2.4,143.7595420529017,
positions.xlsx,stimuli.xlsx,test.xlsx,stimuli/Test1.png,stimuli/Test2.png,stimuli/Social2.png,stimuli/Social1.png,stimuli/Nonsocial2.png,stimuli/Nonsocial1.png,stimuli/Social4.png,stimuli/Social3.png,stimuli/Nonsocial4.png,stimuli/Nonsocial3.png,"(0.7, -0.5)",cs_pos_s_new,"(-0.7, 0.5)",cs_pos_s_new,0,0,0,0,,,,,0,43,43,49,,246.7074730000022,ä,0.6104071000008844,wrong,,26,B,2024-05-01_11h19.35.770,gca_discrimination2,2022.2.4,143.7595420529017,
positions.xlsx,stimuli.xlsx,test.xlsx,stimuli/Test1.png,stimuli/Test2.png,stimuli/Social2.png,stimuli/Social1.png,stimuli/Nonsocial2.png,stimuli/Nonsocial1.png,stimuli/Social4.png,stimuli/Social3.png,stimuli/Nonsocial4.png,stimuli/Nonsocial3.png,"(0.7, -0.5)",cs_pos_s,"(-0.7, 0.5)",cs_pos_s_new,0,0,0,0,,,,,0,44,44,21,,249.15183840000827,l,1.2215683999966132,wrong,,26,B,2024-05-01_11h19.35.770,gca_discrimination2,2022.2.4,143.7595420529017,
positions.xlsx,stimuli.xlsx,test.xlsx,stimuli/Test1.png,stimuli/Test2.png,stimuli/Social2.png,stimuli/Social1.png,stimuli/Nonsocial2.png,stimuli/Nonsocial1.png,stimuli/Social4.png,stimuli/Social3.png,stimuli/Nonsocial4.png,stimuli/Nonsocial3.png,"(-0.7, 0.5)",cs_pos_s,"(0.7, 0.5)",cs_pos_s,0,0,0,0,,,,,0,45,45,53,,252.80443300001207,l,0.6176148999948055,correct,,26,B,2024-05-01_11h19.35.770,gca_discrimination2,2022.2.4,143.7595420529017,
positions.xlsx,stimuli.xlsx,test.xlsx,stimuli/Test1.png,stimuli/Test2.png,stimuli/Social2.png,stimuli/Social1.png,stimuli/Nonsocial2.png,stimuli/Nonsocial1.png,stimuli/Social4.png,stimuli/Social3.png,stimuli/Nonsocial4.png,stimuli/Nonsocial3.png,"(0.7, -0.5)",cs_pos_s,"(-0.7, -0.5)",cs_pos_s,0,0,0,0,,,,,0,46,46,56,,255.35991569999896,l,0.4536980999982916,correct,,26,B,2024-05-01_11h19.35.770,gca_discrimination2,2022.2.4,143.7595420529017,
positions.xlsx,stimuli.xlsx,test.xlsx,stimuli/Test1.png,stimuli/Test2.png,stimuli/Social2.png,stimuli/Social1.png,stimuli/Nonsocial2.png,stimuli/Nonsocial1.png,stimuli/Social4.png,stimuli/Social3.png,stimuli/Nonsocial4.png,stimuli/Nonsocial3.png,"(-0.7, 0.5)",cs_pos_ns_new,"(-0.7, -0.5)",cs_pos_ns_new,0,0,0,0,,,,,0,47,47,74,,258.3320027000009,l,0.4172556999983499,correct,,26,B,2024-05-01_11h19.35.770,gca_discrimination2,2022.2.4,143.7595420529017,
positions.xlsx,stimuli.xlsx,test.xlsx,stimuli/Test1.png,stimuli/Test2.png,stimuli/Social2.png,stimuli/Social1.png,stimuli/Nonsocial2.png,stimuli/Nonsocial1.png,stimuli/Social4.png,stimuli/Social3.png,stimuli/Nonsocial4.png,stimuli/Nonsocial3.png,"(-0.7, -0.5)",cs_pos_ns_new,"(0.7, 0.5)",cs_pos_ns_new,0,0,0,0,,,,,0,48,48,83,,260.9290793000109,l,0.43726030000834726,correct,,26,B,2024-05-01_11h19.35.770,gca_discrimination2,2022.2.4,143.7595420529017,
positions.xlsx,stimuli.xlsx,test.xlsx,stimuli/Test1.png,stimuli/Test2.png,stimuli/Social2.png,stimuli/Social1.png,stimuli/Nonsocial2.png,stimuli/Nonsocial1.png,stimuli/Social4.png,stimuli/Social3.png,stimuli/Nonsocial4.png,stimuli/Nonsocial3.png,"(-0.7, -0.5)",cs_neg_s,"(-0.7, 0.5)",cs_neg_s,0,0,0,0,,,,,0,49,49,57,,263.65815600000496,l,1.5475210000004154,correct,,26,B,2024-05-01_11h19.35.770,gca_discrimination2,2022.2.4,143.7595420529017,
positions.xlsx,stimuli.xlsx,test.xlsx,stimuli/Test1.png,stimuli/Test2.png,stimuli/Social2.png,stimuli/Social1.png,stimuli/Nonsocial2.png,stimuli/Nonsocial1.png,stimuli/Social4.png,stimuli/Social3.png,stimuli/Nonsocial4.png,stimuli/Nonsocial3.png,"(-0.7, 0.5)",cs_neg_ns,"(-0.7, -0.5)",cs_pos_ns_new,0,0,0,0,,,,,0,50,50,33,,267.93576420001045,ä,0.518285999991349,correct,,26,B,2024-05-01_11h19.35.770,gca_discrimination2,2022.2.4,143.7595420529017,
positions.xlsx,stimuli.xlsx,test.xlsx,stimuli/Test1.png,stimuli/Test2.png,stimuli/Social2.png,stimuli/Social1.png,stimuli/Nonsocial2.png,stimuli/Nonsocial1.png,stimuli/Social4.png,stimuli/Social3.png,stimuli/Nonsocial4.png,stimuli/Nonsocial3.png,"(0.7, 0.5)",cs_pos_ns,"(0.7, -0.5)",cs_pos_ns,0,0,0,0,,,,,0,51,51,77,,271.0398048000061,l,0.4938298999913968,correct,,26,B,2024-05-01_11h19.35.770,gca_discrimination2,2022.2.4,143.7595420529017,
positions.xlsx,stimuli.xlsx,test.xlsx,stimuli/Test1.png,stimuli/Test2.png,stimuli/Social2.png,stimuli/Social1.png,stimuli/Nonsocial2.png,stimuli/Nonsocial1.png,stimuli/Social4.png,stimuli/Social3.png,stimuli/Nonsocial4.png,stimuli/Nonsocial3.png,"(-0.7, -0.5)",cs_neg_ns_new,"(0.7, 0.5)",cs_pos_ns_new,0,0,0,0,,,,,0,52,52,43,,274.1507794000063,l,0.3988085000019055,wrong,,26,B,2024-05-01_11h19.35.770,gca_discrimination2,2022.2.4,143.7595420529017,
positions.xlsx,stimuli.xlsx,test.xlsx,stimuli/Test1.png,stimuli/Test2.png,stimuli/Social2.png,stimuli/Social1.png,stimuli/Nonsocial2.png,stimuli/Nonsocial1.png,stimuli/Social4.png,stimuli/Social3.png,stimuli/Nonsocial4.png,stimuli/Nonsocial3.png,"(-0.7, -0.5)",cs_pos_ns,"(0.7, 0.5)",cs_pos_ns_new,0,0,0,0,,,,,0,53,53,38,,276.41459290000785,l,0.7506295000057435,wrong,,26,B,2024-05-01_11h19.35.770,gca_discrimination2,2022.2.4,143.7595420529017,
positions.xlsx,stimuli.xlsx,test.xlsx,stimuli/Test1.png,stimuli/Test2.png,stimuli/Social2.png,stimuli/Social1.png,stimuli/Nonsocial2.png,stimuli/Nonsocial1.png,stimuli/Social4.png,stimuli/Social3.png,stimuli/Nonsocial4.png,stimuli/Nonsocial3.png,"(0.7, -0.5)",cs_pos_s_new,"(-0.7, 0.5)",cs_neg_s_new,0,0,0,0,,,,,0,54,54,2,,279.046430900009,ä,0.6870057999913115,correct,,26,B,2024-05-01_11h19.35.770,gca_discrimination2,2022.2.4,143.7595420529017,
positions.xlsx,stimuli.xlsx,test.xlsx,stimuli/Test1.png,stimuli/Test2.png,stimuli/Social2.png,stimuli/Social1.png,stimuli/Nonsocial2.png,stimuli/Nonsocial1.png,stimuli/Social4.png,stimuli/Social3.png,stimuli/Nonsocial4.png,stimuli/Nonsocial3.png,"(-0.7, -0.5)",cs_neg_s,"(-0.7, 0.5)",cs_neg_s_new,0,0,0,0,,,,,0,55,55,14,,282.24074700000347,ä,0.6773028000025079,correct,,26,B,2024-05-01_11h19.35.770,gca_discrimination2,2022.2.4,143.7595420529017,
positions.xlsx,stimuli.xlsx,test.xlsx,stimuli/Test1.png,stimuli/Test2.png,stimuli/Social2.png,stimuli/Social1.png,stimuli/Nonsocial2.png,stimuli/Nonsocial1.png,stimuli/Social4.png,stimuli/Social3.png,stimuli/Nonsocial4.png,stimuli/Nonsocial3.png,"(0.7, 0.5)",cs_pos_s,"(-0.7, 0.5)",cs_pos_s,0,0,0,0,,,,,0,56,56,58,,285.518344600001,l,0.9509222000051523,correct,,26,B,2024-05-01_11h19.35.770,gca_discrimination2,2022.2.4,143.7595420529017,
positions.xlsx,stimuli.xlsx,test.xlsx,stimuli/Test1.png,stimuli/Test2.png,stimuli/Social2.png,stimuli/Social1.png,stimuli/Nonsocial2.png,stimuli/Nonsocial1.png,stimuli/Social4.png,stimuli/Social3.png,stimuli/Nonsocial4.png,stimuli/Nonsocial3.png,"(-0.7, -0.5)",cs_neg_ns,"(0.7, -0.5)",cs_pos_ns_new,0,0,0,0,,,,,0,57,57,34,,288.88629170000786,l,1.4393007999897236,wrong,,26,B,2024-05-01_11h19.35.770,gca_discrimination2,2022.2.4,143.7595420529017,
positions.xlsx,stimuli.xlsx,test.xlsx,stimuli/Test1.png,stimuli/Test2.png,stimuli/Social2.png,stimuli/Social1.png,stimuli/Nonsocial2.png,stimuli/Nonsocial1.png,stimuli/Social4.png,stimuli/Social3.png,stimuli/Nonsocial4.png,stimuli/Nonsocial3.png,"(-0.7, 0.5)",cs_pos_ns,"(-0.7, -0.5)",cs_pos_ns,0,0,0,0,,,,,0,58,58,86,,292.40700570000627,l,0.5105141999956686,correct,,26,B,2024-05-01_11h19.35.770,gca_discrimination2,2022.2.4,143.7595420529017,
positions.xlsx,stimuli.xlsx,test.xlsx,stimuli/Test1.png,stimuli/Test2.png,stimuli/Social2.png,stimuli/Social1.png,stimuli/Nonsocial2.png,stimuli/Nonsocial1.png,stimuli/Social4.png,stimuli/Social3.png,stimuli/Nonsocial4.png,stimuli/Nonsocial3.png,"(0.7, 0.5)",cs_neg_s_new,"(0.7, -0.5)",cs_pos_s_new,0,0,0,0,,,,,0,59,59,0,,295.1638387999992,ä,0.7216276999970432,correct,,26,B,2024-05-01_11h19.35.770,gca_discrimination2,2022.2.4,143.7595420529017,
positions.xlsx,stimuli.xlsx,test.xlsx,stimuli/Test1.png,stimuli/Test2.png,stimuli/Social2.png,stimuli/Social1.png,stimuli/Nonsocial2.png,stimuli/Nonsocial1.png,stimuli/Social4.png,stimuli/Social3.png,stimuli/Nonsocial4.png,stimuli/Nonsocial3.png,"(-0.7, -0.5)",cs_pos_ns,"(0.7, -0.5)",cs_pos_ns,0,0,0,0,,,,,0,60,60,95,,298.5317517000076,l,0.6754693999973824,correct,,26,B,2024-05-01_11h19.35.770,gca_discrimination2,2022.2.4,143.7595420529017,
positions.xlsx,stimuli.xlsx,test.xlsx,stimuli/Test1.png,stimuli/Test2.png,stimuli/Social2.png,stimuli/Social1.png,stimuli/Nonsocial2.png,stimuli/Nonsocial1.png,stimuli/Social4.png,stimuli/Social3.png,stimuli/Nonsocial4.png,stimuli/Nonsocial3.png,"(-0.7, -0.5)",cs_neg_s_new,"(-0.7, 0.5)",cs_pos_s,0,0,0,0,,,,,0,61,61,9,,301.2330328000098,ä,0.4924431999970693,correct,,26,B,2024-05-01_11h19.35.770,gca_discrimination2,2022.2.4,143.7595420529017,
positions.xlsx,stimuli.xlsx,test.xlsx,stimuli/Test1.png,stimuli/Test2.png,stimuli/Social2.png,stimuli/Social1.png,stimuli/Nonsocial2.png,stimuli/Nonsocial1.png,stimuli/Social4.png,stimuli/Social3.png,stimuli/Nonsocial4.png,stimuli/Nonsocial3.png,"(-0.7, 0.5)",cs_neg_ns_new,"(-0.7, -0.5)",cs_neg_ns,0,0,0,0,,,,,0,62,62,45,,304.41344060000847,l,0.8241840999980923,wrong,,26,B,2024-05-01_11h19.35.770,gca_discrimination2,2022.2.4,143.7595420529017,
positions.xlsx,stimuli.xlsx,test.xlsx,stimuli/Test1.png,stimuli/Test2.png,stimuli/Social2.png,stimuli/Social1.png,stimuli/Nonsocial2.png,stimuli/Nonsocial1.png,stimuli/Social4.png,stimuli/Social3.png,stimuli/Nonsocial4.png,stimuli/Nonsocial3.png,"(-0.7, -0.5)",cs_pos_ns_new,"(-0.7, 0.5)",cs_pos_ns_new,0,0,0,0,,,,,0,63,63,79,,307.0591798000096,l,0.5719175999984145,correct,,26,B,2024-05-01_11h19.35.770,gca_discrimination2,2022.2.4,143.7595420529017,
positions.xlsx,stimuli.xlsx,test.xlsx,stimuli/Test1.png,stimuli/Test2.png,stimuli/Social2.png,stimuli/Social1.png,stimuli/Nonsocial2.png,stimuli/Nonsocial1.png,stimuli/Social4.png,stimuli/Social3.png,stimuli/Nonsocial4.png,stimuli/Nonsocial3.png,"(0.7, -0.5)",cs_pos_ns,"(-0.7, -0.5)",cs_neg_ns_new,0,0,0,0,,,,,0,64,64,42,,310.03128390001075,ä,0.7424832999968203,correct,,26,B,2024-05-01_11h19.35.770,gca_discrimination2,2022.2.4,143.7595420529017,
positions.xlsx,stimuli.xlsx,test.xlsx,stimuli/Test1.png,stimuli/Test2.png,stimuli/Social2.png,stimuli/Social1.png,stimuli/Nonsocial2.png,stimuli/Nonsocial1.png,stimuli/Social4.png,stimuli/Social3.png,stimuli/Nonsocial4.png,stimuli/Nonsocial3.png,"(0.7, 0.5)",cs_neg_s_new,"(0.7, -0.5)",cs_neg_s_new,0,0,0,0,,,,,0,65,65,50,,312.9478574000095,ä,0.5136188000033144,wrong,,26,B,2024-05-01_11h19.35.770,gca_discrimination2,2022.2.4,143.7595420529017,
positions.xlsx,stimuli.xlsx,test.xlsx,stimuli/Test1.png,stimuli/Test2.png,stimuli/Social2.png,stimuli/Social1.png,stimuli/Nonsocial2.png,stimuli/Nonsocial1.png,stimuli/Social4.png,stimuli/Social3.png,stimuli/Nonsocial4.png,stimuli/Nonsocial3.png,"(-0.7, -0.5)",cs_pos_s,"(0.7, -0.5)",cs_neg_s,0,0,0,0,,,,,0,66,66,23,,316.20466030000534,ä,0.5291532999981428,correct,,26,B,2024-05-01_11h19.35.770,gca_discrimination2,2022.2.4,143.7595420529017,
positions.xlsx,stimuli.xlsx,test.xlsx,stimuli/Test1.png,stimuli/Test2.png,stimuli/Social2.png,stimuli/Social1.png,stimuli/Nonsocial2.png,stimuli/Nonsocial1.png,stimuli/Social4.png,stimuli/Social3.png,stimuli/Nonsocial4.png,stimuli/Nonsocial3.png,"(0.7, 0.5)",cs_neg_s_new,"(-0.7, -0.5)",cs_neg_s_new,0,0,0,0,,,,,0,67,67,65,,318.88510600000154,l,0.44115849999070633,correct,,26,B,2024-05-01_11h19.35.770,gca_discrimination2,2022.2.4,143.7595420529017,
positions.xlsx,stimuli.xlsx,test.xlsx,stimuli/Test1.png,stimuli/Test2.png,stimuli/Social2.png,stimuli/Social1.png,stimuli/Nonsocial2.png,stimuli/Nonsocial1.png,stimuli/Social4.png,stimuli/Social3.png,stimuli/Nonsocial4.png,stimuli/Nonsocial3.png,"(-0.7, -0.5)",cs_pos_ns,"(0.7, 0.5)",cs_pos_ns,0,0,0,0,,,,,0,68,68,93,,321.83635860000504,l,0.6173533999972278,correct,,26,B,2024-05-01_11h19.35.770,gca_discrimination2,2022.2.4,143.7595420529017,
positions.xlsx,stimuli.xlsx,test.xlsx,stimuli/Test1.png,stimuli/Test2.png,stimuli/Social2.png,stimuli/Social1.png,stimuli/Nonsocial2.png,stimuli/Nonsocial1.png,stimuli/Social4.png,stimuli/Social3.png,stimuli/Nonsocial4.png,stimuli/Nonsocial3.png,"(0.7, -0.5)",cs_neg_s_new,"(-0.7, -0.5)",cs_neg_s_new,0,0,0,0,,,,,0,69,69,62,,324.329349800013,l,0.7320089999993797,correct,,26,B,2024-05-01_11h19.35.770,gca_discrimination2,2022.2.4,143.7595420529017,
positions.xlsx,stimuli.xlsx,test.xlsx,stimuli/Test1.png,stimuli/Test2.png,stimuli/Social2.png,stimuli/Social1.png,stimuli/Nonsocial2.png,stimuli/Nonsocial1.png,stimuli/Social4.png,stimuli/Social3.png,stimuli/Nonsocial4.png,stimuli/Nonsocial3.png,"(-0.7, -0.5)",cs_neg_s_new,"(-0.7, 0.5)",cs_neg_s_new,0,0,0,0,,,,,0,70,70,71,,327.39169070000935,l,0.4062555999989854,correct,,26,B,2024-05-01_11h19.35.770,gca_discrimination2,2022.2.4,143.7595420529017,
positions.xlsx,stimuli.xlsx,test.xlsx,stimuli/Test1.png,stimuli/Test2.png,stimuli/Social2.png,stimuli/Social1.png,stimuli/Nonsocial2.png,stimuli/Nonsocial1.png,stimuli/Social4.png,stimuli/Social3.png,stimuli/Nonsocial4.png,stimuli/Nonsocial3.png,"(-0.7, -0.5)",cs_pos_s_new,"(0.7, 0.5)",cs_pos_s_new,0,0,0,0,,,,,0,71,71,48,,329.6485459000105,ä,0.6288410999986809,wrong,,26,B,2024-05-01_11h19.35.770,gca_discrimination2,2022.2.4,143.7595420529017,
positions.xlsx,stimuli.xlsx,test.xlsx,stimuli/Test1.png,stimuli/Test2.png,stimuli/Social2.png,stimuli/Social1.png,stimuli/Nonsocial2.png,stimuli/Nonsocial1.png,stimuli/Social4.png,stimuli/Social3.png,stimuli/Nonsocial4.png,stimuli/Nonsocial3.png,"(-0.7, -0.5)",cs_neg_ns_new,"(0.7, -0.5)",cs_pos_ns,0,0,0,0,,,,,0,72,72,29,,333.09285240000463,l,0.6410432999982731,wrong,,26,B,2024-05-01_11h19.35.770,gca_discrimination2,2022.2.4,143.7595420529017,
positions.xlsx,stimuli.xlsx,test.xlsx,stimuli/Test1.png,stimuli/Test2.png,stimuli/Social2.png,stimuli/Social1.png,stimuli/Nonsocial2.png,stimuli/Nonsocial1.png,stimuli/Social4.png,stimuli/Social3.png,stimuli/Nonsocial4.png,stimuli/Nonsocial3.png,"(-0.7, 0.5)",cs_neg_s_new,"(0.7, 0.5)",cs_neg_s_new,0,0,0,0,,,,,0,73,73,54,,335.8705101000087,l,0.5752109000022756,correct,,26,B,2024-05-01_11h19.35.770,gca_discrimination2,2022.2.4,143.7595420529017,
positions.xlsx,stimuli.xlsx,test.xlsx,stimuli/Test1.png,stimuli/Test2.png,stimuli/Social2.png,stimuli/Social1.png,stimuli/Nonsocial2.png,stimuli/Nonsocial1.png,stimuli/Social4.png,stimuli/Social3.png,stimuli/Nonsocial4.png,stimuli/Nonsocial3.png,"(0.7, -0.5)",cs_pos_s,"(0.7, 0.5)",cs_neg_s,0,0,0,0,,,,,0,74,74,12,,339.1203969000053,ä,0.5254127999942284,correct,,26,B,2024-05-01_11h19.35.770,gca_discrimination2,2022.2.4,143.7595420529017,
positions.xlsx,stimuli.xlsx,test.xlsx,stimuli/Test1.png,stimuli/Test2.png,stimuli/Social2.png,stimuli/Social1.png,stimuli/Nonsocial2.png,stimuli/Nonsocial1.png,stimuli/Social4.png,stimuli/Social3.png,stimuli/Nonsocial4.png,stimuli/Nonsocial3.png,"(0.7, -0.5)",cs_neg_ns_new,"(0.7, 0.5)",cs_pos_ns_new,0,0,0,0,,,,,0,75,75,44,,341.7661076000077,l,0.7672412999963854,wrong,,26,B,2024-05-01_11h19.35.770,gca_discrimination2,2022.2.4,143.7595420529017,
positions.xlsx,stimuli.xlsx,test.xlsx,stimuli/Test1.png,stimuli/Test2.png,stimuli/Social2.png,stimuli/Social1.png,stimuli/Nonsocial2.png,stimuli/Nonsocial1.png,stimuli/Social4.png,stimuli/Social3.png,stimuli/Nonsocial4.png,stimuli/Nonsocial3.png,"(-0.7, 0.5)",cs_pos_s,"(-0.7, -0.5)",cs_pos_s,0,0,0,0,,,,,0,76,76,55,,345.1479274000012,l,0.8020129999931669,correct,,26,B,2024-05-01_11h19.35.770,gca_discrimination2,2022.2.4,143.7595420529017,
positions.xlsx,stimuli.xlsx,test.xlsx,stimuli/Test1.png,stimuli/Test2.png,stimuli/Social2.png,stimuli/Social1.png,stimuli/Nonsocial2.png,stimuli/Nonsocial1.png,stimuli/Social4.png,stimuli/Social3.png,stimuli/Nonsocial4.png,stimuli/Nonsocial3.png,"(-0.7, 0.5)",cs_neg_s,"(0.7, 0.5)",cs_neg_s,0,0,0,0,,,,,0,77,77,52,,348.34918790000665,l,0.849044499991578,correct,,26,B,2024-05-01_11h19.35.770,gca_discrimination2,2022.2.4,143.7595420529017,
positions.xlsx,stimuli.xlsx,test.xlsx,stimuli/Test1.png,stimuli/Test2.png,stimuli/Social2.png,stimuli/Social1.png,stimuli/Nonsocial2.png,stimuli/Nonsocial1.png,stimuli/Social4.png,stimuli/Social3.png,stimuli/Nonsocial4.png,stimuli/Nonsocial3.png,"(0.7, -0.5)",cs_pos_ns,"(-0.7, 0.5)",cs_neg_ns_new,0,0,0,0,,,,,0,78,78,27,,351.46712169999955,ä,1.1389837999886367,correct,,26,B,2024-05-01_11h19.35.770,gca_discrimination2,2022.2.4,143.7595420529017,
positions.xlsx,stimuli.xlsx,test.xlsx,stimuli/Test1.png,stimuli/Test2.png,stimuli/Social2.png,stimuli/Social1.png,stimuli/Nonsocial2.png,stimuli/Nonsocial1.png,stimuli/Social4.png,stimuli/Social3.png,stimuli/Nonsocial4.png,stimuli/Nonsocial3.png,"(-0.7, -0.5)",cs_pos_ns_new,"(0.7, 0.5)",cs_neg_ns,0,0,0,0,,,,,0,79,79,41,,354.5086444000044,ä,0.609060300004785,correct,,26,B,2024-05-01_11h19.35.770,gca_discrimination2,2022.2.4,143.7595420529017,
positions.xlsx,stimuli.xlsx,test.xlsx,stimuli/Test1.png,stimuli/Test2.png,stimuli/Social2.png,stimuli/Social1.png,stimuli/Nonsocial2.png,stimuli/Nonsocial1.png,stimuli/Social4.png,stimuli/Social3.png,stimuli/Nonsocial4.png,stimuli/Nonsocial3.png,"(0.7, -0.5)",cs_neg_s_new,"(-0.7, -0.5)",cs_pos_s,0,0,0,0,,,,,0,80,80,10,,357.3557499000017,ä,0.4586450000060722,correct,,26,B,2024-05-01_11h19.35.770,gca_discrimination2,2022.2.4,143.7595420529017,
positions.xlsx,stimuli.xlsx,test.xlsx,stimuli/Test1.png,stimuli/Test2.png,stimuli/Social2.png,stimuli/Social1.png,stimuli/Nonsocial2.png,stimuli/Nonsocial1.png,stimuli/Social4.png,stimuli/Social3.png,stimuli/Nonsocial4.png,stimuli/Nonsocial3.png,"(0.7, -0.5)",cs_pos_s,"(-0.7, 0.5)",cs_neg_s_new,0,0,0,0,,,,,0,81,81,16,,360.43202970000857,ä,0.549946800005273,correct,,26,B,2024-05-01_11h19.35.770,gca_discrimination2,2022.2.4,143.7595420529017,
positions.xlsx,stimuli.xlsx,test.xlsx,stimuli/Test1.png,stimuli/Test2.png,stimuli/Social2.png,stimuli/Social1.png,stimuli/Nonsocial2.png,stimuli/Nonsocial1.png,stimuli/Social4.png,stimuli/Social3.png,stimuli/Nonsocial4.png,stimuli/Nonsocial3.png,"(-0.7, -0.5)",cs_neg_s_new,"(0.7, -0.5)",cs_neg_s_new,0,0,0,0,,,,,0,82,82,60,,363.60550100001274,l,0.7284658999997191,correct,,26,B,2024-05-01_11h19.35.770,gca_discrimination2,2022.2.4,143.7595420529017,
positions.xlsx,stimuli.xlsx,test.xlsx,stimuli/Test1.png,stimuli/Test2.png,stimuli/Social2.png,stimuli/Social1.png,stimuli/Nonsocial2.png,stimuli/Nonsocial1.png,stimuli/Social4.png,stimuli/Social3.png,stimuli/Nonsocial4.png,stimuli/Nonsocial3.png,"(-0.7, 0.5)",cs_pos_ns,"(0.7, -0.5)",cs_pos_ns,0,0,0,0,,,,,0,83,83,94,,366.8554071000108,l,0.7666996000043582,correct,,26,B,2024-05-01_11h19.35.770,gca_discrimination2,2022.2.4,143.7595420529017,
positions.xlsx,stimuli.xlsx,test.xlsx,stimuli/Test1.png,stimuli/Test2.png,stimuli/Social2.png,stimuli/Social1.png,stimuli/Nonsocial2.png,stimuli/Nonsocial1.png,stimuli/Social4.png,stimuli/Social3.png,stimuli/Nonsocial4.png,stimuli/Nonsocial3.png,"(-0.7, -0.5)",cs_pos_ns_new,"(0.7, -0.5)",cs_pos_ns_new,0,0,0,0,,,,,0,84,84,90,,370.1746969000087,l,0.7588456999947084,correct,,26,B,2024-05-01_11h19.35.770,gca_discrimination2,2022.2.4,143.7595420529017,
positions.xlsx,stimuli.xlsx,test.xlsx,stimuli/Test1.png,stimuli/Test2.png,stimuli/Social2.png,stimuli/Social1.png,stimuli/Nonsocial2.png,stimuli/Nonsocial1.png,stimuli/Social4.png,stimuli/Social3.png,stimuli/Nonsocial4.png,stimuli/Nonsocial3.png,"(0.7, -0.5)",cs_neg_ns_new,"(0.7, 0.5)",cs_neg_ns_new,0,0,0,0,,,,,0,85,85,76,,373.30651860000216,l,0.547096899987082,correct,,26,B,2024-05-01_11h19.35.770,gca_discrimination2,2022.2.4,143.7595420529017,
positions.xlsx,stimuli.xlsx,test.xlsx,stimuli/Test1.png,stimuli/Test2.png,stimuli/Social2.png,stimuli/Social1.png,stimuli/Nonsocial2.png,stimuli/Nonsocial1.png,stimuli/Social4.png,stimuli/Social3.png,stimuli/Nonsocial4.png,stimuli/Nonsocial3.png,"(-0.7, -0.5)",cs_pos_s_new,"(-0.7, 0.5)",cs_neg_s,0,0,0,0,,,,,0,86,86,17,,376.11192010001105,ä,0.6703575999999885,correct,,26,B,2024-05-01_11h19.35.770,gca_discrimination2,2022.2.4,143.7595420529017,
positions.xlsx,stimuli.xlsx,test.xlsx,stimuli/Test1.png,stimuli/Test2.png,stimuli/Social2.png,stimuli/Social1.png,stimuli/Nonsocial2.png,stimuli/Nonsocial1.png,stimuli/Social4.png,stimuli/Social3.png,stimuli/Nonsocial4.png,stimuli/Nonsocial3.png,"(-0.7, -0.5)",cs_neg_ns_new,"(-0.7, 0.5)",cs_pos_ns,0,0,0,0,,,,,0,87,87,32,,378.7993128000089,ä,0.3427488000015728,correct,,26,B,2024-05-01_11h19.35.770,gca_discrimination2,2022.2.4,143.7595420529017,
positions.xlsx,stimuli.xlsx,test.xlsx,stimuli/Test1.png,stimuli/Test2.png,stimuli/Social2.png,stimuli/Social1.png,stimuli/Nonsocial2.png,stimuli/Nonsocial1.png,stimuli/Social4.png,stimuli/Social3.png,stimuli/Nonsocial4.png,stimuli/Nonsocial3.png,"(0.7, 0.5)",cs_neg_ns,"(0.7, -0.5)",cs_neg_ns,0,0,0,0,,,,,0,88,88,91,,381.57701069999894,l,0.6608237999898847,correct,,26,B,2024-05-01_11h19.35.770,gca_discrimination2,2022.2.4,143.7595420529017,
positions.xlsx,stimuli.xlsx,test.xlsx,stimuli/Test1.png,stimuli/Test2.png,stimuli/Social2.png,stimuli/Social1.png,stimuli/Nonsocial2.png,stimuli/Nonsocial1.png,stimuli/Social4.png,stimuli/Social3.png,stimuli/Nonsocial4.png,stimuli/Nonsocial3.png,"(-0.7, 0.5)",cs_pos_ns_new,"(0.7, -0.5)",cs_neg_ns,0,0,0,0,,,,,0,89,89,40,,384.67408540000906,ä,0.7722063999972306,correct,,26,B,2024-05-01_11h19.35.770,gca_discrimination2,2022.2.4,143.7595420529017,
positions.xlsx,stimuli.xlsx,test.xlsx,stimuli/Test1.png,stimuli/Test2.png,stimuli/Social2.png,stimuli/Social1.png,stimuli/Nonsocial2.png,stimuli/Nonsocial1.png,stimuli/Social4.png,stimuli/Social3.png,stimuli/Nonsocial4.png,stimuli/Nonsocial3.png,"(0.7, -0.5)",cs_pos_ns_new,"(-0.7, 0.5)",cs_neg_ns_new,0,0,0,0,,,,,0,90,90,36,,387.36151270000846,l,0.7325025000027381,wrong,,26,B,2024-05-01_11h19.35.770,gca_discrimination2,2022.2.4,143.7595420529017,
positions.xlsx,stimuli.xlsx,test.xlsx,stimuli/Test1.png,stimuli/Test2.png,stimuli/Social2.png,stimuli/Social1.png,stimuli/Nonsocial2.png,stimuli/Nonsocial1.png,stimuli/Social4.png,stimuli/Social3.png,stimuli/Nonsocial4.png,stimuli/Nonsocial3.png,"(-0.7, 0.5)",cs_neg_ns,"(0.7, -0.5)",cs_neg_ns,0,0,0,0,,,,,0,91,91,82,,390.5696842000034,l,0.6918172000005143,correct,,26,B,2024-05-01_11h19.35.770,gca_discrimination2,2022.2.4,143.7595420529017,
positions.xlsx,stimuli.xlsx,test.xlsx,stimuli/Test1.png,stimuli/Test2.png,stimuli/Social2.png,stimuli/Social1.png,stimuli/Nonsocial2.png,stimuli/Nonsocial1.png,stimuli/Social4.png,stimuli/Social3.png,stimuli/Nonsocial4.png,stimuli/Nonsocial3.png,"(-0.7, 0.5)",cs_neg_s,"(-0.7, -0.5)",cs_neg_s_new,0,0,0,0,,,,,0,92,92,15,,393.9028882999992,ä,0.47229069999593776,correct,,26,B,2024-05-01_11h19.35.770,gca_discrimination2,2022.2.4,143.7595420529017,
positions.xlsx,stimuli.xlsx,test.xlsx,stimuli/Test1.png,stimuli/Test2.png,stimuli/Social2.png,stimuli/Social1.png,stimuli/Nonsocial2.png,stimuli/Nonsocial1.png,stimuli/Social4.png,stimuli/Social3.png,stimuli/Nonsocial4.png,stimuli/Nonsocial3.png,"(0.7, 0.5)",cs_neg_ns,"(-0.7, -0.5)",cs_neg_ns,0,0,0,0,,,,,0,93,93,88,,396.2569605000026,l,0.5645693999977084,correct,,26,B,2024-05-01_11h19.35.770,gca_discrimination2,2022.2.4,143.7595420529017,
positions.xlsx,stimuli.xlsx,test.xlsx,stimuli/Test1.png,stimuli/Test2.png,stimuli/Social2.png,stimuli/Social1.png,stimuli/Nonsocial2.png,stimuli/Nonsocial1.png,stimuli/Social4.png,stimuli/Social3.png,stimuli/Nonsocial4.png,stimuli/Nonsocial3.png,"(0.7, -0.5)",cs_neg_ns,"(-0.7, -0.5)",cs_neg_ns_new,0,0,0,0,,,,,0,94,94,28,,399.0901833000098,l,0.7240654999914113,wrong,,26,B,2024-05-01_11h19.35.770,gca_discrimination2,2022.2.4,143.7595420529017,
positions.xlsx,stimuli.xlsx,test.xlsx,stimuli/Test1.png,stimuli/Test2.png,stimuli/Social2.png,stimuli/Social1.png,stimuli/Nonsocial2.png,stimuli/Nonsocial1.png,stimuli/Social4.png,stimuli/Social3.png,stimuli/Nonsocial4.png,stimuli/Nonsocial3.png,"(0.7, -0.5)",cs_pos_ns_new,"(0.7, 0.5)",cs_pos_ns_new,0,0,0,0,,,,,0,95,95,72,,402.2080898999993,l,0.3983588000119198,correct,,26,B,2024-05-01_11h19.35.770,gca_discrimination2,2022.2.4,143.7595420529017,
