posFile,stimFile,testFile,test1,test2,cs_neg_s,cs_pos_s,cs_neg_ns,cs_pos_ns,cs_neg_s_new,cs_pos_s_new,cs_neg_ns_new,cs_pos_ns_new,position1,stim1,position2,stim2,blocks.thisRepN,blocks.thisTrialN,blocks.thisN,blocks.thisIndex,learning_trials.thisRepN,learning_trials.thisTrialN,learning_trials.thisN,learning_trials.thisIndex,trials.thisRepN,trials.thisTrialN,trials.thisN,trials.thisIndex,textStart.started,key.started,key.keys,key.rt,correctness,textStartTask.started,participant,group,date,expName,psychopyVersion,frameRate,
positions.xlsx,stimuli.xlsx,test.xlsx,stimuli/Test1.png,stimuli/Test2.png,stimuli/Social3.png,stimuli/Social4.png,stimuli/Nonsocial3.png,stimuli/Nonsocial4.png,stimuli/Social1.png,stimuli/Social2.png,stimuli/Nonsocial1.png,stimuli/Nonsocial2.png,"(0.7, -0.5)",test2,"(0.7, 0.5)",test2,0,0,0,0,0,0,0,5,,,,,10.711515800096095,43.07135590026155,ä,0.6835021995939314,wrong,,11,C,2024-04-19_11h08.17.628,gca_discrimination2,2022.2.4,144.00299523146293,
positions.xlsx,stimuli.xlsx,test.xlsx,stimuli/Test1.png,stimuli/Test2.png,stimuli/Social3.png,stimuli/Social4.png,stimuli/Nonsocial3.png,stimuli/Nonsocial4.png,stimuli/Social1.png,stimuli/Social2.png,stimuli/Nonsocial1.png,stimuli/Nonsocial2.png,"(-0.7, -0.5)",test2,"(0.7, -0.5)",test1,0,0,0,0,0,1,1,4,,,,,,47.897528500296175,ä,0.6566950995475054,correct,,11,C,2024-04-19_11h08.17.628,gca_discrimination2,2022.2.4,144.00299523146293,
positions.xlsx,stimuli.xlsx,test.xlsx,stimuli/Test1.png,stimuli/Test2.png,stimuli/Social3.png,stimuli/Social4.png,stimuli/Nonsocial3.png,stimuli/Nonsocial4.png,stimuli/Social1.png,stimuli/Social2.png,stimuli/Nonsocial1.png,stimuli/Nonsocial2.png,"(0.7, 0.5)",test2,"(-0.7, 0.5)",test2,0,0,0,0,0,2,2,1,,,,,,53.36954540014267,ä,0.6487833997234702,wrong,,11,C,2024-04-19_11h08.17.628,gca_discrimination2,2022.2.4,144.00299523146293,
positions.xlsx,stimuli.xlsx,test.xlsx,stimuli/Test1.png,stimuli/Test2.png,stimuli/Social3.png,stimuli/Social4.png,stimuli/Nonsocial3.png,stimuli/Nonsocial4.png,stimuli/Social1.png,stimuli/Social2.png,stimuli/Nonsocial1.png,stimuli/Nonsocial2.png,"(0.7, 0.5)",test1,"(0.7, -0.5)",test1,0,0,0,0,0,3,3,6,,,,,,58.79289610031992,l,0.6339151998981833,correct,,11,C,2024-04-19_11h08.17.628,gca_discrimination2,2022.2.4,144.00299523146293,
positions.xlsx,stimuli.xlsx,test.xlsx,stimuli/Test1.png,stimuli/Test2.png,stimuli/Social3.png,stimuli/Social4.png,stimuli/Nonsocial3.png,stimuli/Nonsocial4.png,stimuli/Social1.png,stimuli/Social2.png,stimuli/Nonsocial1.png,stimuli/Nonsocial2.png,"(-0.7, -0.5)",test1,"(-0.7, 0.5)",test1,0,0,0,0,0,4,4,3,,,,,,63.84130340022966,l,1.2425433001480997,correct,,11,C,2024-04-19_11h08.17.628,gca_discrimination2,2022.2.4,144.00299523146293,
positions.xlsx,stimuli.xlsx,test.xlsx,stimuli/Test1.png,stimuli/Test2.png,stimuli/Social3.png,stimuli/Social4.png,stimuli/Nonsocial3.png,stimuli/Nonsocial4.png,stimuli/Social1.png,stimuli/Social2.png,stimuli/Nonsocial1.png,stimuli/Nonsocial2.png,"(-0.7, -0.5)",test1,"(0.7, 0.5)",test1,0,0,0,0,0,5,5,8,,,,,,68.92443430004641,l,0.28736279951408505,correct,,11,C,2024-04-19_11h08.17.628,gca_discrimination2,2022.2.4,144.00299523146293,
positions.xlsx,stimuli.xlsx,test.xlsx,stimuli/Test1.png,stimuli/Test2.png,stimuli/Social3.png,stimuli/Social4.png,stimuli/Nonsocial3.png,stimuli/Nonsocial4.png,stimuli/Social1.png,stimuli/Social2.png,stimuli/Nonsocial1.png,stimuli/Nonsocial2.png,"(-0.7, 0.5)",test2,"(-0.7, -0.5)",test2,0,0,0,0,0,6,6,2,,,,,,73.07708580000326,l,0.4291677000001073,correct,,11,C,2024-04-19_11h08.17.628,gca_discrimination2,2022.2.4,144.00299523146293,
positions.xlsx,stimuli.xlsx,test.xlsx,stimuli/Test1.png,stimuli/Test2.png,stimuli/Social3.png,stimuli/Social4.png,stimuli/Nonsocial3.png,stimuli/Nonsocial4.png,stimuli/Social1.png,stimuli/Social2.png,stimuli/Nonsocial1.png,stimuli/Nonsocial2.png,"(0.7, 0.5)",test2,"(-0.7, 0.5)",test2,0,0,0,0,0,7,7,0,,,,,,78.27825020020828,l,0.38012259965762496,correct,,11,C,2024-04-19_11h08.17.628,gca_discrimination2,2022.2.4,144.00299523146293,
positions.xlsx,stimuli.xlsx,test.xlsx,stimuli/Test1.png,stimuli/Test2.png,stimuli/Social3.png,stimuli/Social4.png,stimuli/Nonsocial3.png,stimuli/Nonsocial4.png,stimuli/Social1.png,stimuli/Social2.png,stimuli/Nonsocial1.png,stimuli/Nonsocial2.png,"(0.7, -0.5)",test2,"(-0.7, -0.5)",test1,0,0,0,0,0,8,8,9,,,,,,83.25025530019775,ä,0.40028119971975684,correct,,11,C,2024-04-19_11h08.17.628,gca_discrimination2,2022.2.4,144.00299523146293,
positions.xlsx,stimuli.xlsx,test.xlsx,stimuli/Test1.png,stimuli/Test2.png,stimuli/Social3.png,stimuli/Social4.png,stimuli/Nonsocial3.png,stimuli/Nonsocial4.png,stimuli/Social1.png,stimuli/Social2.png,stimuli/Nonsocial1.png,stimuli/Nonsocial2.png,"(0.7, -0.5)",test1,"(0.7, 0.5)",test1,0,0,0,0,0,9,9,7,,,,,,87.83340130001307,l,0.3222635998390615,correct,,11,C,2024-04-19_11h08.17.628,gca_discrimination2,2022.2.4,144.00299523146293,
positions.xlsx,stimuli.xlsx,test.xlsx,stimuli/Test1.png,stimuli/Test2.png,stimuli/Social3.png,stimuli/Social4.png,stimuli/Nonsocial3.png,stimuli/Nonsocial4.png,stimuli/Social1.png,stimuli/Social2.png,stimuli/Nonsocial1.png,stimuli/Nonsocial2.png,"(0.7, 0.5)",cs_neg_s,"(-0.7, 0.5)",cs_neg_s_new,0,0,0,0,,,,,0,0,0,21,,109.29087070003152,l,1.703638699837029,wrong,90.1874762000516,11,C,2024-04-19_11h08.17.628,gca_discrimination2,2022.2.4,144.00299523146293,
positions.xlsx,stimuli.xlsx,test.xlsx,stimuli/Test1.png,stimuli/Test2.png,stimuli/Social3.png,stimuli/Social4.png,stimuli/Nonsocial3.png,stimuli/Nonsocial4.png,stimuli/Social1.png,stimuli/Social2.png,stimuli/Nonsocial1.png,stimuli/Nonsocial2.png,"(0.7, -0.5)",cs_pos_ns_new,"(0.7, 0.5)",cs_pos_ns_new,0,0,0,0,,,,,0,1,1,94,,113.48515280010179,l,0.6052430998533964,correct,,11,C,2024-04-19_11h08.17.628,gca_discrimination2,2022.2.4,144.00299523146293,
positions.xlsx,stimuli.xlsx,test.xlsx,stimuli/Test1.png,stimuli/Test2.png,stimuli/Social3.png,stimuli/Social4.png,stimuli/Nonsocial3.png,stimuli/Nonsocial4.png,stimuli/Social1.png,stimuli/Social2.png,stimuli/Nonsocial1.png,stimuli/Nonsocial2.png,"(-0.7, 0.5)",cs_neg_ns,"(0.7, -0.5)",cs_pos_ns_new,0,0,0,0,,,,,0,2,2,24,,116.35306870006025,ä,0.8170893997885287,correct,,11,C,2024-04-19_11h08.17.628,gca_discrimination2,2022.2.4,144.00299523146293,
positions.xlsx,stimuli.xlsx,test.xlsx,stimuli/Test1.png,stimuli/Test2.png,stimuli/Social3.png,stimuli/Social4.png,stimuli/Nonsocial3.png,stimuli/Nonsocial4.png,stimuli/Social1.png,stimuli/Social2.png,stimuli/Nonsocial1.png,stimuli/Nonsocial2.png,"(-0.7, -0.5)",cs_pos_ns_new,"(-0.7, 0.5)",cs_pos_ns,0,0,0,0,,,,,0,3,3,31,,119.3876992999576,ä,0.5983440997079015,correct,,11,C,2024-04-19_11h08.17.628,gca_discrimination2,2022.2.4,144.00299523146293,
positions.xlsx,stimuli.xlsx,test.xlsx,stimuli/Test1.png,stimuli/Test2.png,stimuli/Social3.png,stimuli/Social4.png,stimuli/Nonsocial3.png,stimuli/Nonsocial4.png,stimuli/Social1.png,stimuli/Social2.png,stimuli/Nonsocial1.png,stimuli/Nonsocial2.png,"(0.7, 0.5)",cs_pos_ns,"(-0.7, 0.5)",cs_pos_ns,0,0,0,0,,,,,0,4,4,80,,122.2972723999992,l,0.5291110998950899,correct,,11,C,2024-04-19_11h08.17.628,gca_discrimination2,2022.2.4,144.00299523146293,
positions.xlsx,stimuli.xlsx,test.xlsx,stimuli/Test1.png,stimuli/Test2.png,stimuli/Social3.png,stimuli/Social4.png,stimuli/Nonsocial3.png,stimuli/Nonsocial4.png,stimuli/Social1.png,stimuli/Social2.png,stimuli/Nonsocial1.png,stimuli/Nonsocial2.png,"(-0.7, -0.5)",cs_pos_ns,"(0.7, -0.5)",cs_pos_ns,0,0,0,0,,,,,0,5,5,82,,125.32492570020258,l,0.5090705999173224,correct,,11,C,2024-04-19_11h08.17.628,gca_discrimination2,2022.2.4,144.00299523146293,
positions.xlsx,stimuli.xlsx,test.xlsx,stimuli/Test1.png,stimuli/Test2.png,stimuli/Social3.png,stimuli/Social4.png,stimuli/Nonsocial3.png,stimuli/Nonsocial4.png,stimuli/Social1.png,stimuli/Social2.png,stimuli/Nonsocial1.png,stimuli/Nonsocial2.png,"(0.7, -0.5)",cs_pos_s,"(0.7, 0.5)",cs_pos_s_new,0,0,0,0,,,,,0,6,6,15,,127.68595860013738,ä,0.5012608994729817,correct,,11,C,2024-04-19_11h08.17.628,gca_discrimination2,2022.2.4,144.00299523146293,
positions.xlsx,stimuli.xlsx,test.xlsx,stimuli/Test1.png,stimuli/Test2.png,stimuli/Social3.png,stimuli/Social4.png,stimuli/Nonsocial3.png,stimuli/Nonsocial4.png,stimuli/Social1.png,stimuli/Social2.png,stimuli/Nonsocial1.png,stimuli/Nonsocial2.png,"(0.7, 0.5)",cs_neg_s_new,"(-0.7, -0.5)",cs_neg_s_new,0,0,0,0,,,,,0,7,7,64,,130.86638340028003,l,0.5118509000167251,correct,,11,C,2024-04-19_11h08.17.628,gca_discrimination2,2022.2.4,144.00299523146293,
positions.xlsx,stimuli.xlsx,test.xlsx,stimuli/Test1.png,stimuli/Test2.png,stimuli/Social3.png,stimuli/Social4.png,stimuli/Nonsocial3.png,stimuli/Nonsocial4.png,stimuli/Social1.png,stimuli/Social2.png,stimuli/Nonsocial1.png,stimuli/Nonsocial2.png,"(-0.7, 0.5)",cs_neg_s,"(0.7, -0.5)",cs_pos_s,0,0,0,0,,,,,0,8,8,16,,133.24126890022308,ä,0.48905810015276074,correct,,11,C,2024-04-19_11h08.17.628,gca_discrimination2,2022.2.4,144.00299523146293,
positions.xlsx,stimuli.xlsx,test.xlsx,stimuli/Test1.png,stimuli/Test2.png,stimuli/Social3.png,stimuli/Social4.png,stimuli/Nonsocial3.png,stimuli/Nonsocial4.png,stimuli/Social1.png,stimuli/Social2.png,stimuli/Nonsocial1.png,stimuli/Nonsocial2.png,"(-0.7, -0.5)",cs_pos_ns,"(-0.7, 0.5)",cs_pos_ns,0,0,0,0,,,,,0,9,9,93,,135.859172699973,l,0.6155067998915911,correct,,11,C,2024-04-19_11h08.17.628,gca_discrimination2,2022.2.4,144.00299523146293,
positions.xlsx,stimuli.xlsx,test.xlsx,stimuli/Test1.png,stimuli/Test2.png,stimuli/Social3.png,stimuli/Social4.png,stimuli/Nonsocial3.png,stimuli/Nonsocial4.png,stimuli/Social1.png,stimuli/Social2.png,stimuli/Nonsocial1.png,stimuli/Nonsocial2.png,"(-0.7, -0.5)",cs_neg_ns_new,"(0.7, 0.5)",cs_pos_ns_new,0,0,0,0,,,,,0,10,10,27,,138.44245100021362,ä,0.441183399874717,correct,,11,C,2024-04-19_11h08.17.628,gca_discrimination2,2022.2.4,144.00299523146293,
positions.xlsx,stimuli.xlsx,test.xlsx,stimuli/Test1.png,stimuli/Test2.png,stimuli/Social3.png,stimuli/Social4.png,stimuli/Nonsocial3.png,stimuli/Nonsocial4.png,stimuli/Social1.png,stimuli/Social2.png,stimuli/Nonsocial1.png,stimuli/Nonsocial2.png,"(-0.7, 0.5)",cs_neg_s,"(0.7, 0.5)",cs_neg_s,0,0,0,0,,,,,0,11,11,51,,141.16456610010937,l,0.9113119998946786,correct,,11,C,2024-04-19_11h08.17.628,gca_discrimination2,2022.2.4,144.00299523146293,
positions.xlsx,stimuli.xlsx,test.xlsx,stimuli/Test1.png,stimuli/Test2.png,stimuli/Social3.png,stimuli/Social4.png,stimuli/Nonsocial3.png,stimuli/Nonsocial4.png,stimuli/Social1.png,stimuli/Social2.png,stimuli/Nonsocial1.png,stimuli/Nonsocial2.png,"(0.7, -0.5)",cs_neg_ns,"(0.7, 0.5)",cs_neg_ns,0,0,0,0,,,,,0,12,12,73,,144.6644176999107,l,0.7793917995877564,correct,,11,C,2024-04-19_11h08.17.628,gca_discrimination2,2022.2.4,144.00299523146293,
positions.xlsx,stimuli.xlsx,test.xlsx,stimuli/Test1.png,stimuli/Test2.png,stimuli/Social3.png,stimuli/Social4.png,stimuli/Nonsocial3.png,stimuli/Nonsocial4.png,stimuli/Social1.png,stimuli/Social2.png,stimuli/Nonsocial1.png,stimuli/Nonsocial2.png,"(-0.7, -0.5)",cs_pos_ns_new,"(-0.7, 0.5)",cs_neg_ns_new,0,0,0,0,,,,,0,13,13,47,,148.15733590023592,l,1.149428099859506,wrong,,11,C,2024-04-19_11h08.17.628,gca_discrimination2,2022.2.4,144.00299523146293,
positions.xlsx,stimuli.xlsx,test.xlsx,stimuli/Test1.png,stimuli/Test2.png,stimuli/Social3.png,stimuli/Social4.png,stimuli/Nonsocial3.png,stimuli/Nonsocial4.png,stimuli/Social1.png,stimuli/Social2.png,stimuli/Nonsocial1.png,stimuli/Nonsocial2.png,"(-0.7, -0.5)",cs_pos_s_new,"(0.7, -0.5)",cs_pos_s,0,0,0,0,,,,,0,14,14,12,,151.12945500016212,ä,0.4821322998031974,correct,,11,C,2024-04-19_11h08.17.628,gca_discrimination2,2022.2.4,144.00299523146293,
positions.xlsx,stimuli.xlsx,test.xlsx,stimuli/Test1.png,stimuli/Test2.png,stimuli/Social3.png,stimuli/Social4.png,stimuli/Nonsocial3.png,stimuli/Nonsocial4.png,stimuli/Social1.png,stimuli/Social2.png,stimuli/Nonsocial1.png,stimuli/Nonsocial2.png,"(-0.7, 0.5)",cs_neg_s_new,"(0.7, 0.5)",cs_pos_s_new,0,0,0,0,,,,,0,15,15,6,,153.5737749999389,ä,1.221115400083363,correct,,11,C,2024-04-19_11h08.17.628,gca_discrimination2,2022.2.4,144.00299523146293,
positions.xlsx,stimuli.xlsx,test.xlsx,stimuli/Test1.png,stimuli/Test2.png,stimuli/Social3.png,stimuli/Social4.png,stimuli/Nonsocial3.png,stimuli/Nonsocial4.png,stimuli/Social1.png,stimuli/Social2.png,stimuli/Nonsocial1.png,stimuli/Nonsocial2.png,"(-0.7, 0.5)",cs_pos_ns,"(0.7, 0.5)",cs_neg_ns,0,0,0,0,,,,,0,16,16,28,,157.0458479002118,l,0.5966233997605741,wrong,,11,C,2024-04-19_11h08.17.628,gca_discrimination2,2022.2.4,144.00299523146293,
positions.xlsx,stimuli.xlsx,test.xlsx,stimuli/Test1.png,stimuli/Test2.png,stimuli/Social3.png,stimuli/Social4.png,stimuli/Nonsocial3.png,stimuli/Nonsocial4.png,stimuli/Social1.png,stimuli/Social2.png,stimuli/Nonsocial1.png,stimuli/Nonsocial2.png,"(0.7, -0.5)",cs_neg_ns,"(-0.7, 0.5)",cs_neg_ns,0,0,0,0,,,,,0,17,17,86,,160.39292189991102,l,0.49852609960362315,correct,,11,C,2024-04-19_11h08.17.628,gca_discrimination2,2022.2.4,144.00299523146293,
positions.xlsx,stimuli.xlsx,test.xlsx,stimuli/Test1.png,stimuli/Test2.png,stimuli/Social3.png,stimuli/Social4.png,stimuli/Nonsocial3.png,stimuli/Nonsocial4.png,stimuli/Social1.png,stimuli/Social2.png,stimuli/Nonsocial1.png,stimuli/Nonsocial2.png,"(0.7, 0.5)",cs_neg_ns_new,"(0.7, -0.5)",cs_neg_ns,0,0,0,0,,,,,0,18,18,43,,162.955343300011,l,0.6633323999121785,wrong,,11,C,2024-04-19_11h08.17.628,gca_discrimination2,2022.2.4,144.00299523146293,
positions.xlsx,stimuli.xlsx,test.xlsx,stimuli/Test1.png,stimuli/Test2.png,stimuli/Social3.png,stimuli/Social4.png,stimuli/Nonsocial3.png,stimuli/Nonsocial4.png,stimuli/Social1.png,stimuli/Social2.png,stimuli/Nonsocial1.png,stimuli/Nonsocial2.png,"(0.7, 0.5)",cs_neg_s_new,"(-0.7, -0.5)",cs_neg_s,0,0,0,0,,,,,0,19,19,10,,166.3649224000983,ä,0.5893055000342429,correct,,11,C,2024-04-19_11h08.17.628,gca_discrimination2,2022.2.4,144.00299523146293,
positions.xlsx,stimuli.xlsx,test.xlsx,stimuli/Test1.png,stimuli/Test2.png,stimuli/Social3.png,stimuli/Social4.png,stimuli/Nonsocial3.png,stimuli/Nonsocial4.png,stimuli/Social1.png,stimuli/Social2.png,stimuli/Nonsocial1.png,stimuli/Nonsocial2.png,"(0.7, -0.5)",cs_neg_ns_new,"(-0.7, 0.5)",cs_neg_ns_new,0,0,0,0,,,,,0,20,20,95,,169.70508369989693,l,0.47281099995598197,correct,,11,C,2024-04-19_11h08.17.628,gca_discrimination2,2022.2.4,144.00299523146293,
positions.xlsx,stimuli.xlsx,test.xlsx,stimuli/Test1.png,stimuli/Test2.png,stimuli/Social3.png,stimuli/Social4.png,stimuli/Nonsocial3.png,stimuli/Nonsocial4.png,stimuli/Social1.png,stimuli/Social2.png,stimuli/Nonsocial1.png,stimuli/Nonsocial2.png,"(0.7, -0.5)",cs_pos_ns_new,"(-0.7, 0.5)",cs_pos_ns_new,0,0,0,0,,,,,0,21,21,84,,172.69105240004137,ä,0.5749289998784661,wrong,,11,C,2024-04-19_11h08.17.628,gca_discrimination2,2022.2.4,144.00299523146293,
positions.xlsx,stimuli.xlsx,test.xlsx,stimuli/Test1.png,stimuli/Test2.png,stimuli/Social3.png,stimuli/Social4.png,stimuli/Nonsocial3.png,stimuli/Nonsocial4.png,stimuli/Social1.png,stimuli/Social2.png,stimuli/Nonsocial1.png,stimuli/Nonsocial2.png,"(-0.7, -0.5)",cs_neg_ns_new,"(0.7, -0.5)",cs_neg_ns,0,0,0,0,,,,,0,22,22,44,,175.6840055999346,l,1.4467107001692057,wrong,,11,C,2024-04-19_11h08.17.628,gca_discrimination2,2022.2.4,144.00299523146293,
positions.xlsx,stimuli.xlsx,test.xlsx,stimuli/Test1.png,stimuli/Test2.png,stimuli/Social3.png,stimuli/Social4.png,stimuli/Nonsocial3.png,stimuli/Nonsocial4.png,stimuli/Social1.png,stimuli/Social2.png,stimuli/Nonsocial1.png,stimuli/Nonsocial2.png,"(0.7, 0.5)",cs_neg_ns_new,"(-0.7, 0.5)",cs_neg_ns,0,0,0,0,,,,,0,23,23,45,,179.34363509994,l,0.5304442998021841,wrong,,11,C,2024-04-19_11h08.17.628,gca_discrimination2,2022.2.4,144.00299523146293,
positions.xlsx,stimuli.xlsx,test.xlsx,stimuli/Test1.png,stimuli/Test2.png,stimuli/Social3.png,stimuli/Social4.png,stimuli/Nonsocial3.png,stimuli/Nonsocial4.png,stimuli/Social1.png,stimuli/Social2.png,stimuli/Nonsocial1.png,stimuli/Nonsocial2.png,"(0.7, -0.5)",cs_neg_ns,"(0.7, 0.5)",cs_pos_ns,0,0,0,0,,,,,0,24,24,32,,182.6003620000556,ä,0.4498689998872578,correct,,11,C,2024-04-19_11h08.17.628,gca_discrimination2,2022.2.4,144.00299523146293,
positions.xlsx,stimuli.xlsx,test.xlsx,stimuli/Test1.png,stimuli/Test2.png,stimuli/Social3.png,stimuli/Social4.png,stimuli/Nonsocial3.png,stimuli/Nonsocial4.png,stimuli/Social1.png,stimuli/Social2.png,stimuli/Nonsocial1.png,stimuli/Nonsocial2.png,"(0.7, -0.5)",cs_pos_s_new,"(-0.7, 0.5)",cs_pos_s_new,0,0,0,0,,,,,0,25,25,67,,185.23915960034356,l,0.4195191999897361,correct,,11,C,2024-04-19_11h08.17.628,gca_discrimination2,2022.2.4,144.00299523146293,
positions.xlsx,stimuli.xlsx,test.xlsx,stimuli/Test1.png,stimuli/Test2.png,stimuli/Social3.png,stimuli/Social4.png,stimuli/Nonsocial3.png,stimuli/Nonsocial4.png,stimuli/Social1.png,stimuli/Social2.png,stimuli/Nonsocial1.png,stimuli/Nonsocial2.png,"(-0.7, -0.5)",cs_neg_s_new,"(-0.7, 0.5)",cs_pos_s_new,0,0,0,0,,,,,0,26,26,20,,187.59324169997126,ä,0.36920069996267557,correct,,11,C,2024-04-19_11h08.17.628,gca_discrimination2,2022.2.4,144.00299523146293,
positions.xlsx,stimuli.xlsx,test.xlsx,stimuli/Test1.png,stimuli/Test2.png,stimuli/Social3.png,stimuli/Social4.png,stimuli/Nonsocial3.png,stimuli/Nonsocial4.png,stimuli/Social1.png,stimuli/Social2.png,stimuli/Nonsocial1.png,stimuli/Nonsocial2.png,"(0.7, -0.5)",cs_pos_s_new,"(0.7, 0.5)",cs_neg_s,0,0,0,0,,,,,0,27,27,3,,190.35007400019094,ä,0.42785519966855645,correct,,11,C,2024-04-19_11h08.17.628,gca_discrimination2,2022.2.4,144.00299523146293,
positions.xlsx,stimuli.xlsx,test.xlsx,stimuli/Test1.png,stimuli/Test2.png,stimuli/Social3.png,stimuli/Social4.png,stimuli/Nonsocial3.png,stimuli/Nonsocial4.png,stimuli/Social1.png,stimuli/Social2.png,stimuli/Nonsocial1.png,stimuli/Nonsocial2.png,"(0.7, 0.5)",cs_pos_ns,"(-0.7, -0.5)",cs_neg_ns_new,0,0,0,0,,,,,0,28,28,39,,192.71804370032623,l,0.8766110995784402,wrong,,11,C,2024-04-19_11h08.17.628,gca_discrimination2,2022.2.4,144.00299523146293,
positions.xlsx,stimuli.xlsx,test.xlsx,stimuli/Test1.png,stimuli/Test2.png,stimuli/Social3.png,stimuli/Social4.png,stimuli/Nonsocial3.png,stimuli/Nonsocial4.png,stimuli/Social1.png,stimuli/Social2.png,stimuli/Nonsocial1.png,stimuli/Nonsocial2.png,"(-0.7, 0.5)",cs_neg_ns,"(-0.7, -0.5)",cs_neg_ns,0,0,0,0,,,,,0,29,29,76,,196.3220534999855,l,0.4803589996881783,correct,,11,C,2024-04-19_11h08.17.628,gca_discrimination2,2022.2.4,144.00299523146293,
positions.xlsx,stimuli.xlsx,test.xlsx,stimuli/Test1.png,stimuli/Test2.png,stimuli/Social3.png,stimuli/Social4.png,stimuli/Nonsocial3.png,stimuli/Nonsocial4.png,stimuli/Social1.png,stimuli/Social2.png,stimuli/Nonsocial1.png,stimuli/Nonsocial2.png,"(0.7, -0.5)",cs_pos_ns,"(-0.7, -0.5)",cs_pos_ns,0,0,0,0,,,,,0,30,30,75,,198.7663946999237,ä,1.7725875000469387,wrong,,11,C,2024-04-19_11h08.17.628,gca_discrimination2,2022.2.4,144.00299523146293,
positions.xlsx,stimuli.xlsx,test.xlsx,stimuli/Test1.png,stimuli/Test2.png,stimuli/Social3.png,stimuli/Social4.png,stimuli/Nonsocial3.png,stimuli/Nonsocial4.png,stimuli/Social1.png,stimuli/Social2.png,stimuli/Nonsocial1.png,stimuli/Nonsocial2.png,"(-0.7, -0.5)",cs_neg_s,"(0.7, -0.5)",cs_neg_s,0,0,0,0,,,,,0,31,31,65,,202.9259492000565,l,1.107965599745512,correct,,11,C,2024-04-19_11h08.17.628,gca_discrimination2,2022.2.4,144.00299523146293,
positions.xlsx,stimuli.xlsx,test.xlsx,stimuli/Test1.png,stimuli/Test2.png,stimuli/Social3.png,stimuli/Social4.png,stimuli/Nonsocial3.png,stimuli/Nonsocial4.png,stimuli/Social1.png,stimuli/Social2.png,stimuli/Nonsocial1.png,stimuli/Nonsocial2.png,"(-0.7, 0.5)",cs_neg_ns_new,"(-0.7, -0.5)",cs_pos_ns_new,0,0,0,0,,,,,0,32,32,38,,205.90496070031077,ä,0.6261688997037709,correct,,11,C,2024-04-19_11h08.17.628,gca_discrimination2,2022.2.4,144.00299523146293,
positions.xlsx,stimuli.xlsx,test.xlsx,stimuli/Test1.png,stimuli/Test2.png,stimuli/Social3.png,stimuli/Social4.png,stimuli/Nonsocial3.png,stimuli/Nonsocial4.png,stimuli/Social1.png,stimuli/Social2.png,stimuli/Nonsocial1.png,stimuli/Nonsocial2.png,"(-0.7, -0.5)",cs_neg_ns_new,"(0.7, -0.5)",cs_pos_ns_new,0,0,0,0,,,,,0,33,33,33,,209.19653310021386,ä,0.8695008000358939,correct,,11,C,2024-04-19_11h08.17.628,gca_discrimination2,2022.2.4,144.00299523146293,
positions.xlsx,stimuli.xlsx,test.xlsx,stimuli/Test1.png,stimuli/Test2.png,stimuli/Social3.png,stimuli/Social4.png,stimuli/Nonsocial3.png,stimuli/Nonsocial4.png,stimuli/Social1.png,stimuli/Social2.png,stimuli/Nonsocial1.png,stimuli/Nonsocial2.png,"(-0.7, 0.5)",cs_neg_ns,"(0.7, 0.5)",cs_pos_ns_new,0,0,0,0,,,,,0,34,34,46,,212.61304210033268,ä,0.8294506999664009,correct,,11,C,2024-04-19_11h08.17.628,gca_discrimination2,2022.2.4,144.00299523146293,
positions.xlsx,stimuli.xlsx,test.xlsx,stimuli/Test1.png,stimuli/Test2.png,stimuli/Social3.png,stimuli/Social4.png,stimuli/Nonsocial3.png,stimuli/Nonsocial4.png,stimuli/Social1.png,stimuli/Social2.png,stimuli/Nonsocial1.png,stimuli/Nonsocial2.png,"(-0.7, 0.5)",cs_neg_s_new,"(-0.7, -0.5)",cs_neg_s_new,0,0,0,0,,,,,0,35,35,62,,215.61988059990108,l,0.4714104998856783,correct,,11,C,2024-04-19_11h08.17.628,gca_discrimination2,2022.2.4,144.00299523146293,
positions.xlsx,stimuli.xlsx,test.xlsx,stimuli/Test1.png,stimuli/Test2.png,stimuli/Social3.png,stimuli/Social4.png,stimuli/Nonsocial3.png,stimuli/Nonsocial4.png,stimuli/Social1.png,stimuli/Social2.png,stimuli/Nonsocial1.png,stimuli/Nonsocial2.png,"(-0.7, -0.5)",cs_pos_s_new,"(0.7, -0.5)",cs_pos_s_new,0,0,0,0,,,,,0,36,36,60,,218.59889410017058,ä,0.8116382998414338,wrong,,11,C,2024-04-19_11h08.17.628,gca_discrimination2,2022.2.4,144.00299523146293,
positions.xlsx,stimuli.xlsx,test.xlsx,stimuli/Test1.png,stimuli/Test2.png,stimuli/Social3.png,stimuli/Social4.png,stimuli/Nonsocial3.png,stimuli/Nonsocial4.png,stimuli/Social1.png,stimuli/Social2.png,stimuli/Nonsocial1.png,stimuli/Nonsocial2.png,"(-0.7, 0.5)",cs_neg_ns_new,"(-0.7, -0.5)",cs_neg_ns_new,0,0,0,0,,,,,0,37,37,92,,222.11260510003194,l,0.39395840000361204,correct,,11,C,2024-04-19_11h08.17.628,gca_discrimination2,2022.2.4,144.00299523146293,
positions.xlsx,stimuli.xlsx,test.xlsx,stimuli/Test1.png,stimuli/Test2.png,stimuli/Social3.png,stimuli/Social4.png,stimuli/Nonsocial3.png,stimuli/Nonsocial4.png,stimuli/Social1.png,stimuli/Social2.png,stimuli/Nonsocial1.png,stimuli/Nonsocial2.png,"(-0.7, -0.5)",cs_neg_s_new,"(0.7, 0.5)",cs_neg_s,0,0,0,0,,,,,0,38,38,9,,224.71676980005577,ä,0.8457088000141084,correct,,11,C,2024-04-19_11h08.17.628,gca_discrimination2,2022.2.4,144.00299523146293,
positions.xlsx,stimuli.xlsx,test.xlsx,stimuli/Test1.png,stimuli/Test2.png,stimuli/Social3.png,stimuli/Social4.png,stimuli/Nonsocial3.png,stimuli/Nonsocial4.png,stimuli/Social1.png,stimuli/Social2.png,stimuli/Nonsocial1.png,stimuli/Nonsocial2.png,"(-0.7, 0.5)",cs_pos_ns_new,"(0.7, -0.5)",cs_pos_ns,0,0,0,0,,,,,0,39,39,26,,227.93882740009576,l,0.5350649002939463,wrong,,11,C,2024-04-19_11h08.17.628,gca_discrimination2,2022.2.4,144.00299523146293,
positions.xlsx,stimuli.xlsx,test.xlsx,stimuli/Test1.png,stimuli/Test2.png,stimuli/Social3.png,stimuli/Social4.png,stimuli/Nonsocial3.png,stimuli/Nonsocial4.png,stimuli/Social1.png,stimuli/Social2.png,stimuli/Nonsocial1.png,stimuli/Nonsocial2.png,"(-0.7, -0.5)",cs_pos_s,"(0.7, 0.5)",cs_pos_s_new,0,0,0,0,,,,,0,40,40,11,,230.31372669991106,ä,0.3601706000044942,correct,,11,C,2024-04-19_11h08.17.628,gca_discrimination2,2022.2.4,144.00299523146293,
positions.xlsx,stimuli.xlsx,test.xlsx,stimuli/Test1.png,stimuli/Test2.png,stimuli/Social3.png,stimuli/Social4.png,stimuli/Nonsocial3.png,stimuli/Nonsocial4.png,stimuli/Social1.png,stimuli/Social2.png,stimuli/Nonsocial1.png,stimuli/Nonsocial2.png,"(-0.7, -0.5)",cs_pos_s,"(0.7, 0.5)",cs_pos_s,0,0,0,0,,,,,0,41,41,53,,233.39002340007573,ä,1.1650286000221968,wrong,,11,C,2024-04-19_11h08.17.628,gca_discrimination2,2022.2.4,144.00299523146293,
positions.xlsx,stimuli.xlsx,test.xlsx,stimuli/Test1.png,stimuli/Test2.png,stimuli/Social3.png,stimuli/Social4.png,stimuli/Nonsocial3.png,stimuli/Nonsocial4.png,stimuli/Social1.png,stimuli/Social2.png,stimuli/Nonsocial1.png,stimuli/Nonsocial2.png,"(-0.7, 0.5)",cs_pos_ns_new,"(-0.7, -0.5)",cs_pos_ns_new,0,0,0,0,,,,,0,42,42,72,,236.99401320004836,l,0.5924638998694718,correct,,11,C,2024-04-19_11h08.17.628,gca_discrimination2,2022.2.4,144.00299523146293,
positions.xlsx,stimuli.xlsx,test.xlsx,stimuli/Test1.png,stimuli/Test2.png,stimuli/Social3.png,stimuli/Social4.png,stimuli/Nonsocial3.png,stimuli/Nonsocial4.png,stimuli/Social1.png,stimuli/Social2.png,stimuli/Nonsocial1.png,stimuli/Nonsocial2.png,"(0.7, 0.5)",cs_pos_s_new,"(-0.7, 0.5)",cs_neg_s_new,0,0,0,0,,,,,0,43,43,19,,239.41057400032878,ä,0.3930447995662689,correct,,11,C,2024-04-19_11h08.17.628,gca_discrimination2,2022.2.4,144.00299523146293,
positions.xlsx,stimuli.xlsx,test.xlsx,stimuli/Test1.png,stimuli/Test2.png,stimuli/Social3.png,stimuli/Social4.png,stimuli/Nonsocial3.png,stimuli/Nonsocial4.png,stimuli/Social1.png,stimuli/Social2.png,stimuli/Nonsocial1.png,stimuli/Nonsocial2.png,"(0.7, 0.5)",cs_pos_ns,"(0.7, -0.5)",cs_pos_ns,0,0,0,0,,,,,0,44,44,89,,242.36184590030462,l,0.7050525997765362,correct,,11,C,2024-04-19_11h08.17.628,gca_discrimination2,2022.2.4,144.00299523146293,
positions.xlsx,stimuli.xlsx,test.xlsx,stimuli/Test1.png,stimuli/Test2.png,stimuli/Social3.png,stimuli/Social4.png,stimuli/Nonsocial3.png,stimuli/Nonsocial4.png,stimuli/Social1.png,stimuli/Social2.png,stimuli/Nonsocial1.png,stimuli/Nonsocial2.png,"(-0.7, 0.5)",cs_pos_s,"(0.7, -0.5)",cs_pos_s,0,0,0,0,,,,,0,45,45,55,,245.84780050022528,l,0.5470178998075426,correct,,11,C,2024-04-19_11h08.17.628,gca_discrimination2,2022.2.4,144.00299523146293,
positions.xlsx,stimuli.xlsx,test.xlsx,stimuli/Test1.png,stimuli/Test2.png,stimuli/Social3.png,stimuli/Social4.png,stimuli/Nonsocial3.png,stimuli/Nonsocial4.png,stimuli/Social1.png,stimuli/Social2.png,stimuli/Nonsocial1.png,stimuli/Nonsocial2.png,"(-0.7, 0.5)",cs_pos_ns_new,"(0.7, -0.5)",cs_pos_ns_new,0,0,0,0,,,,,0,46,46,77,,248.38937810016796,ä,0.4532805001363158,wrong,,11,C,2024-04-19_11h08.17.628,gca_discrimination2,2022.2.4,144.00299523146293,
positions.xlsx,stimuli.xlsx,test.xlsx,stimuli/Test1.png,stimuli/Test2.png,stimuli/Social3.png,stimuli/Social4.png,stimuli/Nonsocial3.png,stimuli/Nonsocial4.png,stimuli/Social1.png,stimuli/Social2.png,stimuli/Nonsocial1.png,stimuli/Nonsocial2.png,"(0.7, 0.5)",cs_pos_s,"(-0.7, 0.5)",cs_neg_s_new,0,0,0,0,,,,,0,47,47,5,,251.46562650008127,ä,0.5861701997928321,correct,,11,C,2024-04-19_11h08.17.628,gca_discrimination2,2022.2.4,144.00299523146293,
positions.xlsx,stimuli.xlsx,test.xlsx,stimuli/Test1.png,stimuli/Test2.png,stimuli/Social3.png,stimuli/Social4.png,stimuli/Nonsocial3.png,stimuli/Nonsocial4.png,stimuli/Social1.png,stimuli/Social2.png,stimuli/Nonsocial1.png,stimuli/Nonsocial2.png,"(0.7, 0.5)",cs_neg_ns,"(-0.7, 0.5)",cs_neg_ns,0,0,0,0,,,,,0,48,48,78,,254.2571976003237,l,0.4579678997397423,correct,,11,C,2024-04-19_11h08.17.628,gca_discrimination2,2022.2.4,144.00299523146293,
positions.xlsx,stimuli.xlsx,test.xlsx,stimuli/Test1.png,stimuli/Test2.png,stimuli/Social3.png,stimuli/Social4.png,stimuli/Nonsocial3.png,stimuli/Nonsocial4.png,stimuli/Social1.png,stimuli/Social2.png,stimuli/Nonsocial1.png,stimuli/Nonsocial2.png,"(0.7, 0.5)",cs_neg_s_new,"(-0.7, 0.5)",cs_neg_s,0,0,0,0,,,,,0,49,49,0,,257.4584580999799,l,0.6079392000101507,wrong,,11,C,2024-04-19_11h08.17.628,gca_discrimination2,2022.2.4,144.00299523146293,
positions.xlsx,stimuli.xlsx,test.xlsx,stimuli/Test1.png,stimuli/Test2.png,stimuli/Social3.png,stimuli/Social4.png,stimuli/Nonsocial3.png,stimuli/Nonsocial4.png,stimuli/Social1.png,stimuli/Social2.png,stimuli/Nonsocial1.png,stimuli/Nonsocial2.png,"(-0.7, 0.5)",cs_pos_ns_new,"(0.7, -0.5)",cs_neg_ns,0,0,0,0,,,,,0,50,50,41,,260.53469270002097,ä,0.6124737998470664,correct,,11,C,2024-04-19_11h08.17.628,gca_discrimination2,2022.2.4,144.00299523146293,
positions.xlsx,stimuli.xlsx,test.xlsx,stimuli/Test1.png,stimuli/Test2.png,stimuli/Social3.png,stimuli/Social4.png,stimuli/Nonsocial3.png,stimuli/Nonsocial4.png,stimuli/Social1.png,stimuli/Social2.png,stimuli/Nonsocial1.png,stimuli/Nonsocial2.png,"(-0.7, -0.5)",cs_neg_s,"(0.7, 0.5)",cs_neg_s,0,0,0,0,,,,,0,51,51,68,,263.5484684999101,l,0.40634889993816614,correct,,11,C,2024-04-19_11h08.17.628,gca_discrimination2,2022.2.4,144.00299523146293,
positions.xlsx,stimuli.xlsx,test.xlsx,stimuli/Test1.png,stimuli/Test2.png,stimuli/Social3.png,stimuli/Social4.png,stimuli/Nonsocial3.png,stimuli/Nonsocial4.png,stimuli/Social1.png,stimuli/Social2.png,stimuli/Nonsocial1.png,stimuli/Nonsocial2.png,"(0.7, 0.5)",cs_pos_s_new,"(-0.7, -0.5)",cs_neg_s,0,0,0,0,,,,,0,52,52,4,,266.5969834001735,l,0.46235830010846257,wrong,,11,C,2024-04-19_11h08.17.628,gca_discrimination2,2022.2.4,144.00299523146293,
positions.xlsx,stimuli.xlsx,test.xlsx,stimuli/Test1.png,stimuli/Test2.png,stimuli/Social3.png,stimuli/Social4.png,stimuli/Nonsocial3.png,stimuli/Nonsocial4.png,stimuli/Social1.png,stimuli/Social2.png,stimuli/Nonsocial1.png,stimuli/Nonsocial2.png,"(-0.7, -0.5)",cs_neg_s,"(-0.7, 0.5)",cs_neg_s,0,0,0,0,,,,,0,53,53,59,,269.7357177003287,l,0.5069368998520076,correct,,11,C,2024-04-19_11h08.17.628,gca_discrimination2,2022.2.4,144.00299523146293,
positions.xlsx,stimuli.xlsx,test.xlsx,stimuli/Test1.png,stimuli/Test2.png,stimuli/Social3.png,stimuli/Social4.png,stimuli/Nonsocial3.png,stimuli/Nonsocial4.png,stimuli/Social1.png,stimuli/Social2.png,stimuli/Nonsocial1.png,stimuli/Nonsocial2.png,"(-0.7, -0.5)",cs_neg_ns,"(0.7, 0.5)",cs_neg_ns,0,0,0,0,,,,,0,54,54,91,,272.53420870006084,l,1.4605446998029947,correct,,11,C,2024-04-19_11h08.17.628,gca_discrimination2,2022.2.4,144.00299523146293,
positions.xlsx,stimuli.xlsx,test.xlsx,stimuli/Test1.png,stimuli/Test2.png,stimuli/Social3.png,stimuli/Social4.png,stimuli/Nonsocial3.png,stimuli/Nonsocial4.png,stimuli/Social1.png,stimuli/Social2.png,stimuli/Nonsocial1.png,stimuli/Nonsocial2.png,"(0.7, 0.5)",cs_pos_ns_new,"(-0.7, -0.5)",cs_neg_ns,0,0,0,0,,,,,0,55,55,42,,276.7146149002947,ä,0.7131401998922229,correct,,11,C,2024-04-19_11h08.17.628,gca_discrimination2,2022.2.4,144.00299523146293,
positions.xlsx,stimuli.xlsx,test.xlsx,stimuli/Test1.png,stimuli/Test2.png,stimuli/Social3.png,stimuli/Social4.png,stimuli/Nonsocial3.png,stimuli/Nonsocial4.png,stimuli/Social1.png,stimuli/Social2.png,stimuli/Nonsocial1.png,stimuli/Nonsocial2.png,"(-0.7, -0.5)",cs_pos_s,"(0.7, -0.5)",cs_pos_s,0,0,0,0,,,,,0,56,56,61,,280.0686754002236,l,0.48652239982038736,correct,,11,C,2024-04-19_11h08.17.628,gca_discrimination2,2022.2.4,144.00299523146293,
positions.xlsx,stimuli.xlsx,test.xlsx,stimuli/Test1.png,stimuli/Test2.png,stimuli/Social3.png,stimuli/Social4.png,stimuli/Nonsocial3.png,stimuli/Nonsocial4.png,stimuli/Social1.png,stimuli/Social2.png,stimuli/Nonsocial1.png,stimuli/Nonsocial2.png,"(-0.7, -0.5)",cs_neg_s_new,"(-0.7, 0.5)",cs_neg_s_new,0,0,0,0,,,,,0,57,57,63,,282.8254387001507,l,0.5931163998320699,correct,,11,C,2024-04-19_11h08.17.628,gca_discrimination2,2022.2.4,144.00299523146293,
positions.xlsx,stimuli.xlsx,test.xlsx,stimuli/Test1.png,stimuli/Test2.png,stimuli/Social3.png,stimuli/Social4.png,stimuli/Nonsocial3.png,stimuli/Nonsocial4.png,stimuli/Social1.png,stimuli/Social2.png,stimuli/Nonsocial1.png,stimuli/Nonsocial2.png,"(-0.7, -0.5)",cs_pos_s,"(0.7, -0.5)",cs_pos_s_new,0,0,0,0,,,,,0,58,58,18,,286.019732600078,ä,0.47083659982308745,correct,,11,C,2024-04-19_11h08.17.628,gca_discrimination2,2022.2.4,144.00299523146293,
positions.xlsx,stimuli.xlsx,test.xlsx,stimuli/Test1.png,stimuli/Test2.png,stimuli/Social3.png,stimuli/Social4.png,stimuli/Nonsocial3.png,stimuli/Nonsocial4.png,stimuli/Social1.png,stimuli/Social2.png,stimuli/Nonsocial1.png,stimuli/Nonsocial2.png,"(0.7, -0.5)",cs_pos_ns_new,"(-0.7, 0.5)",cs_neg_ns_new,0,0,0,0,,,,,0,59,59,40,,288.92935470025986,l,0.5693250000476837,wrong,,11,C,2024-04-19_11h08.17.628,gca_discrimination2,2022.2.4,144.00299523146293,
positions.xlsx,stimuli.xlsx,test.xlsx,stimuli/Test1.png,stimuli/Test2.png,stimuli/Social3.png,stimuli/Social4.png,stimuli/Nonsocial3.png,stimuli/Nonsocial4.png,stimuli/Social1.png,stimuli/Social2.png,stimuli/Nonsocial1.png,stimuli/Nonsocial2.png,"(0.7, 0.5)",cs_pos_ns,"(-0.7, -0.5)",cs_pos_ns,0,0,0,0,,,,,0,60,60,81,,291.97092340001836,l,0.3832700001075864,correct,,11,C,2024-04-19_11h08.17.628,gca_discrimination2,2022.2.4,144.00299523146293,
positions.xlsx,stimuli.xlsx,test.xlsx,stimuli/Test1.png,stimuli/Test2.png,stimuli/Social3.png,stimuli/Social4.png,stimuli/Nonsocial3.png,stimuli/Nonsocial4.png,stimuli/Social1.png,stimuli/Social2.png,stimuli/Nonsocial1.png,stimuli/Nonsocial2.png,"(0.7, -0.5)",cs_neg_ns,"(0.7, 0.5)",cs_neg_ns_new,0,0,0,0,,,,,0,61,61,29,,295.1166350999847,l,0.5257528000511229,wrong,,11,C,2024-04-19_11h08.17.628,gca_discrimination2,2022.2.4,144.00299523146293,
positions.xlsx,stimuli.xlsx,test.xlsx,stimuli/Test1.png,stimuli/Test2.png,stimuli/Social3.png,stimuli/Social4.png,stimuli/Nonsocial3.png,stimuli/Nonsocial4.png,stimuli/Social1.png,stimuli/Social2.png,stimuli/Nonsocial1.png,stimuli/Nonsocial2.png,"(0.7, 0.5)",cs_pos_s,"(0.7, -0.5)",cs_pos_s,0,0,0,0,,,,,0,62,62,49,,298.3317936002277,l,0.5518346996977925,correct,,11,C,2024-04-19_11h08.17.628,gca_discrimination2,2022.2.4,144.00299523146293,
positions.xlsx,stimuli.xlsx,test.xlsx,stimuli/Test1.png,stimuli/Test2.png,stimuli/Social3.png,stimuli/Social4.png,stimuli/Nonsocial3.png,stimuli/Nonsocial4.png,stimuli/Social1.png,stimuli/Social2.png,stimuli/Nonsocial1.png,stimuli/Nonsocial2.png,"(-0.7, -0.5)",cs_pos_s_new,"(0.7, 0.5)",cs_pos_s_new,0,0,0,0,,,,,0,63,63,69,,300.94278600020334,l,0.37943349964916706,correct,,11,C,2024-04-19_11h08.17.628,gca_discrimination2,2022.2.4,144.00299523146293,
positions.xlsx,stimuli.xlsx,test.xlsx,stimuli/Test1.png,stimuli/Test2.png,stimuli/Social3.png,stimuli/Social4.png,stimuli/Nonsocial3.png,stimuli/Nonsocial4.png,stimuli/Social1.png,stimuli/Social2.png,stimuli/Nonsocial1.png,stimuli/Nonsocial2.png,"(0.7, -0.5)",cs_pos_s_new,"(-0.7, -0.5)",cs_pos_s_new,0,0,0,0,,,,,0,64,64,66,,303.8801498003304,l,0.4104507998563349,correct,,11,C,2024-04-19_11h08.17.628,gca_discrimination2,2022.2.4,144.00299523146293,
positions.xlsx,stimuli.xlsx,test.xlsx,stimuli/Test1.png,stimuli/Test2.png,stimuli/Social3.png,stimuli/Social4.png,stimuli/Nonsocial3.png,stimuli/Nonsocial4.png,stimuli/Social1.png,stimuli/Social2.png,stimuli/Nonsocial1.png,stimuli/Nonsocial2.png,"(0.7, 0.5)",cs_pos_ns,"(-0.7, 0.5)",cs_neg_ns,0,0,0,0,,,,,0,65,65,25,,306.84530969988555,l,1.292865099851042,wrong,,11,C,2024-04-19_11h08.17.628,gca_discrimination2,2022.2.4,144.00299523146293,
positions.xlsx,stimuli.xlsx,test.xlsx,stimuli/Test1.png,stimuli/Test2.png,stimuli/Social3.png,stimuli/Social4.png,stimuli/Nonsocial3.png,stimuli/Nonsocial4.png,stimuli/Social1.png,stimuli/Social2.png,stimuli/Nonsocial1.png,stimuli/Nonsocial2.png,"(0.7, -0.5)",cs_pos_ns,"(-0.7, 0.5)",cs_pos_ns,0,0,0,0,,,,,0,66,66,85,,310.93542780028656,l,0.8108457997441292,correct,,11,C,2024-04-19_11h08.17.628,gca_discrimination2,2022.2.4,144.00299523146293,
positions.xlsx,stimuli.xlsx,test.xlsx,stimuli/Test1.png,stimuli/Test2.png,stimuli/Social3.png,stimuli/Social4.png,stimuli/Nonsocial3.png,stimuli/Nonsocial4.png,stimuli/Social1.png,stimuli/Social2.png,stimuli/Nonsocial1.png,stimuli/Nonsocial2.png,"(0.7, 0.5)",cs_pos_s,"(-0.7, -0.5)",cs_pos_s_new,0,0,0,0,,,,,0,67,67,14,,314.2825064002536,ä,0.4320865999907255,correct,,11,C,2024-04-19_11h08.17.628,gca_discrimination2,2022.2.4,144.00299523146293,
positions.xlsx,stimuli.xlsx,test.xlsx,stimuli/Test1.png,stimuli/Test2.png,stimuli/Social3.png,stimuli/Social4.png,stimuli/Nonsocial3.png,stimuli/Nonsocial4.png,stimuli/Social1.png,stimuli/Social2.png,stimuli/Nonsocial1.png,stimuli/Nonsocial2.png,"(0.7, -0.5)",cs_neg_s_new,"(0.7, 0.5)",cs_pos_s,0,0,0,0,,,,,0,68,68,13,,317.3240825003013,ä,0.9264859999530017,correct,,11,C,2024-04-19_11h08.17.628,gca_discrimination2,2022.2.4,144.00299523146293,
positions.xlsx,stimuli.xlsx,test.xlsx,stimuli/Test1.png,stimuli/Test2.png,stimuli/Social3.png,stimuli/Social4.png,stimuli/Nonsocial3.png,stimuli/Nonsocial4.png,stimuli/Social1.png,stimuli/Social2.png,stimuli/Nonsocial1.png,stimuli/Nonsocial2.png,"(0.7, -0.5)",cs_pos_s,"(-0.7, 0.5)",cs_neg_s_new,0,0,0,0,,,,,0,69,69,22,,320.4628073000349,l,0.41163229988887906,wrong,,11,C,2024-04-19_11h08.17.628,gca_discrimination2,2022.2.4,144.00299523146293,
positions.xlsx,stimuli.xlsx,test.xlsx,stimuli/Test1.png,stimuli/Test2.png,stimuli/Social3.png,stimuli/Social4.png,stimuli/Nonsocial3.png,stimuli/Nonsocial4.png,stimuli/Social1.png,stimuli/Social2.png,stimuli/Nonsocial1.png,stimuli/Nonsocial2.png,"(-0.7, 0.5)",cs_pos_s_new,"(-0.7, -0.5)",cs_neg_s,0,0,0,0,,,,,0,70,70,17,,322.7821559002623,l,0.9561127997003496,wrong,,11,C,2024-04-19_11h08.17.628,gca_discrimination2,2022.2.4,144.00299523146293,
positions.xlsx,stimuli.xlsx,test.xlsx,stimuli/Test1.png,stimuli/Test2.png,stimuli/Social3.png,stimuli/Social4.png,stimuli/Nonsocial3.png,stimuli/Nonsocial4.png,stimuli/Social1.png,stimuli/Social2.png,stimuli/Nonsocial1.png,stimuli/Nonsocial2.png,"(-0.7, -0.5)",cs_neg_s_new,"(0.7, 0.5)",cs_neg_s_new,0,0,0,0,,,,,0,71,71,50,,325.816777900327,ä,0.5939949997700751,wrong,,11,C,2024-04-19_11h08.17.628,gca_discrimination2,2022.2.4,144.00299523146293,
positions.xlsx,stimuli.xlsx,test.xlsx,stimuli/Test1.png,stimuli/Test2.png,stimuli/Social3.png,stimuli/Social4.png,stimuli/Nonsocial3.png,stimuli/Nonsocial4.png,stimuli/Social1.png,stimuli/Social2.png,stimuli/Nonsocial1.png,stimuli/Nonsocial2.png,"(-0.7, 0.5)",cs_neg_s,"(-0.7, -0.5)",cs_neg_s_new,0,0,0,0,,,,,0,72,72,2,,328.5805399999954,ä,1.0139975999481976,correct,,11,C,2024-04-19_11h08.17.628,gca_discrimination2,2022.2.4,144.00299523146293,
positions.xlsx,stimuli.xlsx,test.xlsx,stimuli/Test1.png,stimuli/Test2.png,stimuli/Social3.png,stimuli/Social4.png,stimuli/Nonsocial3.png,stimuli/Nonsocial4.png,stimuli/Social1.png,stimuli/Social2.png,stimuli/Nonsocial1.png,stimuli/Nonsocial2.png,"(0.7, 0.5)",cs_pos_s,"(-0.7, 0.5)",cs_pos_s,0,0,0,0,,,,,0,73,73,71,,332.3303680000827,l,0.6155533995479345,correct,,11,C,2024-04-19_11h08.17.628,gca_discrimination2,2022.2.4,144.00299523146293,
positions.xlsx,stimuli.xlsx,test.xlsx,stimuli/Test1.png,stimuli/Test2.png,stimuli/Social3.png,stimuli/Social4.png,stimuli/Nonsocial3.png,stimuli/Nonsocial4.png,stimuli/Social1.png,stimuli/Social2.png,stimuli/Nonsocial1.png,stimuli/Nonsocial2.png,"(0.7, -0.5)",cs_neg_s_new,"(0.7, 0.5)",cs_neg_s_new,0,0,0,0,,,,,0,74,74,54,,334.84412629995495,l,0.6864012000150979,correct,,11,C,2024-04-19_11h08.17.628,gca_discrimination2,2022.2.4,144.00299523146293,
positions.xlsx,stimuli.xlsx,test.xlsx,stimuli/Test1.png,stimuli/Test2.png,stimuli/Social3.png,stimuli/Social4.png,stimuli/Nonsocial3.png,stimuli/Nonsocial4.png,stimuli/Social1.png,stimuli/Social2.png,stimuli/Nonsocial1.png,stimuli/Nonsocial2.png,"(0.7, 0.5)",cs_neg_s,"(-0.7, -0.5)",cs_pos_s_new,0,0,0,0,,,,,0,75,75,8,,338.30930430023,l,0.5087212999351323,wrong,,11,C,2024-04-19_11h08.17.628,gca_discrimination2,2022.2.4,144.00299523146293,
positions.xlsx,stimuli.xlsx,test.xlsx,stimuli/Test1.png,stimuli/Test2.png,stimuli/Social3.png,stimuli/Social4.png,stimuli/Nonsocial3.png,stimuli/Nonsocial4.png,stimuli/Social1.png,stimuli/Social2.png,stimuli/Nonsocial1.png,stimuli/Nonsocial2.png,"(-0.7, -0.5)",cs_pos_ns,"(0.7, 0.5)",cs_pos_ns,0,0,0,0,,,,,0,76,76,79,,341.28836139990017,l,0.4339682995341718,correct,,11,C,2024-04-19_11h08.17.628,gca_discrimination2,2022.2.4,144.00299523146293,
positions.xlsx,stimuli.xlsx,test.xlsx,stimuli/Test1.png,stimuli/Test2.png,stimuli/Social3.png,stimuli/Social4.png,stimuli/Nonsocial3.png,stimuli/Nonsocial4.png,stimuli/Social1.png,stimuli/Social2.png,stimuli/Nonsocial1.png,stimuli/Nonsocial2.png,"(0.7, 0.5)",cs_pos_ns,"(-0.7, -0.5)",cs_pos_ns_new,0,0,0,0,,,,,0,77,77,34,,344.0729673001915,ä,0.4099711999297142,correct,,11,C,2024-04-19_11h08.17.628,gca_discrimination2,2022.2.4,144.00299523146293,
positions.xlsx,stimuli.xlsx,test.xlsx,stimuli/Test1.png,stimuli/Test2.png,stimuli/Social3.png,stimuli/Social4.png,stimuli/Nonsocial3.png,stimuli/Nonsocial4.png,stimuli/Social1.png,stimuli/Social2.png,stimuli/Nonsocial1.png,stimuli/Nonsocial2.png,"(0.7, -0.5)",cs_neg_s,"(-0.7, -0.5)",cs_neg_s,0,0,0,0,,,,,0,78,78,56,,346.9825585000217,l,0.8193129999563098,correct,,11,C,2024-04-19_11h08.17.628,gca_discrimination2,2022.2.4,144.00299523146293,
positions.xlsx,stimuli.xlsx,test.xlsx,stimuli/Test1.png,stimuli/Test2.png,stimuli/Social3.png,stimuli/Social4.png,stimuli/Nonsocial3.png,stimuli/Nonsocial4.png,stimuli/Social1.png,stimuli/Social2.png,stimuli/Nonsocial1.png,stimuli/Nonsocial2.png,"(0.7, -0.5)",cs_pos_s_new,"(0.7, 0.5)",cs_pos_s,0,0,0,0,,,,,0,79,79,1,,350.1976990001276,ä,0.6533943000249565,correct,,11,C,2024-04-19_11h08.17.628,gca_discrimination2,2022.2.4,144.00299523146293,
positions.xlsx,stimuli.xlsx,test.xlsx,stimuli/Test1.png,stimuli/Test2.png,stimuli/Social3.png,stimuli/Social4.png,stimuli/Nonsocial3.png,stimuli/Nonsocial4.png,stimuli/Social1.png,stimuli/Social2.png,stimuli/Nonsocial1.png,stimuli/Nonsocial2.png,"(0.7, 0.5)",cs_pos_s_new,"(-0.7, -0.5)",cs_pos_s_new,0,0,0,0,,,,,0,80,80,70,,352.81567210005596,l,0.5392901999875903,correct,,11,C,2024-04-19_11h08.17.628,gca_discrimination2,2022.2.4,144.00299523146293,
positions.xlsx,stimuli.xlsx,test.xlsx,stimuli/Test1.png,stimuli/Test2.png,stimuli/Social3.png,stimuli/Social4.png,stimuli/Nonsocial3.png,stimuli/Nonsocial4.png,stimuli/Social1.png,stimuli/Social2.png,stimuli/Nonsocial1.png,stimuli/Nonsocial2.png,"(-0.7, 0.5)",cs_pos_s_new,"(0.7, -0.5)",cs_pos_s_new,0,0,0,0,,,,,0,81,81,57,,355.98912880010903,l,0.38967749988660216,correct,,11,C,2024-04-19_11h08.17.628,gca_discrimination2,2022.2.4,144.00299523146293,
positions.xlsx,stimuli.xlsx,test.xlsx,stimuli/Test1.png,stimuli/Test2.png,stimuli/Social3.png,stimuli/Social4.png,stimuli/Nonsocial3.png,stimuli/Nonsocial4.png,stimuli/Social1.png,stimuli/Social2.png,stimuli/Nonsocial1.png,stimuli/Nonsocial2.png,"(0.7, 0.5)",cs_pos_ns_new,"(0.7, -0.5)",cs_pos_ns_new,0,0,0,0,,,,,0,82,82,74,,359.12097749998793,l,1.2332318997941911,correct,,11,C,2024-04-19_11h08.17.628,gca_discrimination2,2022.2.4,144.00299523146293,
positions.xlsx,stimuli.xlsx,test.xlsx,stimuli/Test1.png,stimuli/Test2.png,stimuli/Social3.png,stimuli/Social4.png,stimuli/Nonsocial3.png,stimuli/Nonsocial4.png,stimuli/Social1.png,stimuli/Social2.png,stimuli/Nonsocial1.png,stimuli/Nonsocial2.png,"(0.7, 0.5)",cs_neg_s_new,"(0.7, -0.5)",cs_neg_s,0,0,0,0,,,,,0,83,83,7,,362.9819104000926,l,0.6365428999997675,wrong,,11,C,2024-04-19_11h08.17.628,gca_discrimination2,2022.2.4,144.00299523146293,
positions.xlsx,stimuli.xlsx,test.xlsx,stimuli/Test1.png,stimuli/Test2.png,stimuli/Social3.png,stimuli/Social4.png,stimuli/Nonsocial3.png,stimuli/Nonsocial4.png,stimuli/Social1.png,stimuli/Social2.png,stimuli/Nonsocial1.png,stimuli/Nonsocial2.png,"(-0.7, 0.5)",cs_neg_ns_new,"(0.7, 0.5)",cs_neg_ns_new,0,0,0,0,,,,,0,84,84,87,,366.28734929999337,l,0.6274161995388567,correct,,11,C,2024-04-19_11h08.17.628,gca_discrimination2,2022.2.4,144.00299523146293,
positions.xlsx,stimuli.xlsx,test.xlsx,stimuli/Test1.png,stimuli/Test2.png,stimuli/Social3.png,stimuli/Social4.png,stimuli/Nonsocial3.png,stimuli/Nonsocial4.png,stimuli/Social1.png,stimuli/Social2.png,stimuli/Nonsocial1.png,stimuli/Nonsocial2.png,"(-0.7, -0.5)",cs_neg_ns_new,"(-0.7, 0.5)",cs_neg_ns,0,0,0,0,,,,,0,85,85,36,,369.1066458001733,l,0.48813149984925985,wrong,,11,C,2024-04-19_11h08.17.628,gca_discrimination2,2022.2.4,144.00299523146293,
positions.xlsx,stimuli.xlsx,test.xlsx,stimuli/Test1.png,stimuli/Test2.png,stimuli/Social3.png,stimuli/Social4.png,stimuli/Nonsocial3.png,stimuli/Nonsocial4.png,stimuli/Social1.png,stimuli/Social2.png,stimuli/Nonsocial1.png,stimuli/Nonsocial2.png,"(-0.7, 0.5)",cs_neg_ns_new,"(-0.7, -0.5)",cs_neg_ns,0,0,0,0,,,,,0,86,86,35,,372.3356965999119,l,0.43439089972525835,wrong,,11,C,2024-04-19_11h08.17.628,gca_discrimination2,2022.2.4,144.00299523146293,
positions.xlsx,stimuli.xlsx,test.xlsx,stimuli/Test1.png,stimuli/Test2.png,stimuli/Social3.png,stimuli/Social4.png,stimuli/Nonsocial3.png,stimuli/Nonsocial4.png,stimuli/Social1.png,stimuli/Social2.png,stimuli/Nonsocial1.png,stimuli/Nonsocial2.png,"(0.7, -0.5)",cs_pos_s_new,"(0.7, 0.5)",cs_pos_s_new,0,0,0,0,,,,,0,87,87,58,,375.32870450010523,l,0.5935268998146057,correct,,11,C,2024-04-19_11h08.17.628,gca_discrimination2,2022.2.4,144.00299523146293,
positions.xlsx,stimuli.xlsx,test.xlsx,stimuli/Test1.png,stimuli/Test2.png,stimuli/Social3.png,stimuli/Social4.png,stimuli/Nonsocial3.png,stimuli/Nonsocial4.png,stimuli/Social1.png,stimuli/Social2.png,stimuli/Nonsocial1.png,stimuli/Nonsocial2.png,"(0.7, 0.5)",cs_neg_ns,"(-0.7, -0.5)",cs_neg_ns,0,0,0,0,,,,,0,88,88,90,,377.89103760011494,l,0.37625549966469407,correct,,11,C,2024-04-19_11h08.17.628,gca_discrimination2,2022.2.4,144.00299523146293,
positions.xlsx,stimuli.xlsx,test.xlsx,stimuli/Test1.png,stimuli/Test2.png,stimuli/Social3.png,stimuli/Social4.png,stimuli/Nonsocial3.png,stimuli/Nonsocial4.png,stimuli/Social1.png,stimuli/Social2.png,stimuli/Nonsocial1.png,stimuli/Nonsocial2.png,"(-0.7, -0.5)",cs_pos_ns_new,"(0.7, 0.5)",cs_pos_ns_new,0,0,0,0,,,,,0,89,89,83,,380.6339859999716,ä,0.4318876997567713,wrong,,11,C,2024-04-19_11h08.17.628,gca_discrimination2,2022.2.4,144.00299523146293,
positions.xlsx,stimuli.xlsx,test.xlsx,stimuli/Test1.png,stimuli/Test2.png,stimuli/Social3.png,stimuli/Social4.png,stimuli/Nonsocial3.png,stimuli/Nonsocial4.png,stimuli/Social1.png,stimuli/Social2.png,stimuli/Nonsocial1.png,stimuli/Nonsocial2.png,"(-0.7, 0.5)",cs_neg_ns_new,"(0.7, -0.5)",cs_neg_ns_new,0,0,0,0,,,,,0,90,90,88,,383.12693329993635,l,0.3633293001912534,correct,,11,C,2024-04-19_11h08.17.628,gca_discrimination2,2022.2.4,144.00299523146293,
positions.xlsx,stimuli.xlsx,test.xlsx,stimuli/Test1.png,stimuli/Test2.png,stimuli/Social3.png,stimuli/Social4.png,stimuli/Nonsocial3.png,stimuli/Nonsocial4.png,stimuli/Social1.png,stimuli/Social2.png,stimuli/Nonsocial1.png,stimuli/Nonsocial2.png,"(0.7, 0.5)",cs_pos_s_new,"(0.7, -0.5)",cs_pos_s_new,0,0,0,0,,,,,0,91,91,48,,386.09902659989893,l,1.1267803995870054,correct,,11,C,2024-04-19_11h08.17.628,gca_discrimination2,2022.2.4,144.00299523146293,
positions.xlsx,stimuli.xlsx,test.xlsx,stimuli/Test1.png,stimuli/Test2.png,stimuli/Social3.png,stimuli/Social4.png,stimuli/Nonsocial3.png,stimuli/Nonsocial4.png,stimuli/Social1.png,stimuli/Social2.png,stimuli/Nonsocial1.png,stimuli/Nonsocial2.png,"(-0.7, 0.5)",cs_neg_ns_new,"(0.7, -0.5)",cs_pos_ns,0,0,0,0,,,,,0,92,92,37,,389.6961028003134,ä,0.4906041999347508,correct,,11,C,2024-04-19_11h08.17.628,gca_discrimination2,2022.2.4,144.00299523146293,
positions.xlsx,stimuli.xlsx,test.xlsx,stimuli/Test1.png,stimuli/Test2.png,stimuli/Social3.png,stimuli/Social4.png,stimuli/Nonsocial3.png,stimuli/Nonsocial4.png,stimuli/Social1.png,stimuli/Social2.png,stimuli/Nonsocial1.png,stimuli/Nonsocial2.png,"(0.7, -0.5)",cs_neg_s_new,"(-0.7, 0.5)",cs_neg_s_new,0,0,0,0,,,,,0,93,93,52,,392.45293770032004,l,0.3898984999395907,correct,,11,C,2024-04-19_11h08.17.628,gca_discrimination2,2022.2.4,144.00299523146293,
positions.xlsx,stimuli.xlsx,test.xlsx,stimuli/Test1.png,stimuli/Test2.png,stimuli/Social3.png,stimuli/Social4.png,stimuli/Nonsocial3.png,stimuli/Nonsocial4.png,stimuli/Social1.png,stimuli/Social2.png,stimuli/Nonsocial1.png,stimuli/Nonsocial2.png,"(-0.7, 0.5)",cs_neg_ns,"(0.7, 0.5)",cs_neg_ns_new,0,0,0,0,,,,,0,94,94,30,,395.5916784000583,l,0.5064236000180244,wrong,,11,C,2024-04-19_11h08.17.628,gca_discrimination2,2022.2.4,144.00299523146293,
positions.xlsx,stimuli.xlsx,test.xlsx,stimuli/Test1.png,stimuli/Test2.png,stimuli/Social3.png,stimuli/Social4.png,stimuli/Nonsocial3.png,stimuli/Nonsocial4.png,stimuli/Social1.png,stimuli/Social2.png,stimuli/Nonsocial1.png,stimuli/Nonsocial2.png,"(0.7, -0.5)",cs_pos_s,"(-0.7, -0.5)",cs_pos_s_new,0,0,0,0,,,,,0,95,95,23,,398.5568451001309,ä,0.5498758996836841,correct,,11,C,2024-04-19_11h08.17.628,gca_discrimination2,2022.2.4,144.00299523146293,
