posFile,stimFile,testFile,test1,test2,cs_neg_s,cs_pos_s,cs_neg_ns,cs_pos_ns,cs_neg_s_new,cs_pos_s_new,cs_neg_ns_new,cs_pos_ns_new,position1,stim1,position2,stim2,blocks.thisRepN,blocks.thisTrialN,blocks.thisN,blocks.thisIndex,learning_trials.thisRepN,learning_trials.thisTrialN,learning_trials.thisN,learning_trials.thisIndex,trials.thisRepN,trials.thisTrialN,trials.thisN,trials.thisIndex,textStart.started,key.started,key.keys,key.rt,correctness,textStartTask.started,participant,group,date,expName,psychopyVersion,frameRate,
positions.xlsx,stimuli.xlsx,test.xlsx,stimuli/Test1.png,stimuli/Test2.png,stimuli/Social1.png,stimuli/Social2.png,stimuli/Nonsocial1.png,stimuli/Nonsocial2.png,stimuli/Social3.png,stimuli/Social4.png,stimuli/Nonsocial3.png,stimuli/Nonsocial4.png,"(0.7, -0.5)",test2,"(-0.7, 0.5)",test2,0,0,0,0,0,0,0,9,,,,,1388.824426999985,1426.3437492999947,ä,1.9499166999885347,wrong,,41,A,2024-05-17_14h12.59.508,gca_discrimination2,2022.2.4,144.00340997306813,
positions.xlsx,stimuli.xlsx,test.xlsx,stimuli/Test1.png,stimuli/Test2.png,stimuli/Social1.png,stimuli/Social2.png,stimuli/Nonsocial1.png,stimuli/Nonsocial2.png,stimuli/Social3.png,stimuli/Social4.png,stimuli/Nonsocial3.png,stimuli/Nonsocial4.png,"(0.7, 0.5)",test2,"(-0.7, 0.5)",test1,0,0,0,0,0,1,1,0,,,,,,1432.66296039999,None,,no answer,,41,A,2024-05-17_14h12.59.508,gca_discrimination2,2022.2.4,144.00340997306813,
positions.xlsx,stimuli.xlsx,test.xlsx,stimuli/Test1.png,stimuli/Test2.png,stimuli/Social1.png,stimuli/Social2.png,stimuli/Nonsocial1.png,stimuli/Nonsocial2.png,stimuli/Social3.png,stimuli/Social4.png,stimuli/Nonsocial3.png,stimuli/Nonsocial4.png,"(-0.7, -0.5)",test2,"(-0.7, 0.5)",test2,0,0,0,0,0,2,2,6,,,,,,1439.0029810999986,l,0.9060985000105575,correct,,41,A,2024-05-17_14h12.59.508,gca_discrimination2,2022.2.4,144.00340997306813,
positions.xlsx,stimuli.xlsx,test.xlsx,stimuli/Test1.png,stimuli/Test2.png,stimuli/Social1.png,stimuli/Social2.png,stimuli/Nonsocial1.png,stimuli/Nonsocial2.png,stimuli/Social3.png,stimuli/Social4.png,stimuli/Nonsocial3.png,stimuli/Nonsocial4.png,"(0.7, -0.5)",test2,"(-0.7, -0.5)",test1,0,0,0,0,0,3,3,5,,,,,,1443.8847224999918,ä,0.919796000001952,correct,,41,A,2024-05-17_14h12.59.508,gca_discrimination2,2022.2.4,144.00340997306813,
positions.xlsx,stimuli.xlsx,test.xlsx,stimuli/Test1.png,stimuli/Test2.png,stimuli/Social1.png,stimuli/Social2.png,stimuli/Nonsocial1.png,stimuli/Nonsocial2.png,stimuli/Social3.png,stimuli/Social4.png,stimuli/Nonsocial3.png,stimuli/Nonsocial4.png,"(-0.7, 0.5)",test2,"(0.7, 0.5)",test1,0,0,0,0,0,4,4,1,,,,,,1448.974797700008,ä,0.862083599990001,correct,,41,A,2024-05-17_14h12.59.508,gca_discrimination2,2022.2.4,144.00340997306813,
positions.xlsx,stimuli.xlsx,test.xlsx,stimuli/Test1.png,stimuli/Test2.png,stimuli/Social1.png,stimuli/Social2.png,stimuli/Nonsocial1.png,stimuli/Nonsocial2.png,stimuli/Social3.png,stimuli/Social4.png,stimuli/Nonsocial3.png,stimuli/Nonsocial4.png,"(0.7, -0.5)",test1,"(0.7, 0.5)",test2,0,0,0,0,0,5,5,4,,,,,,1454.120418400009,ä,1.3166977999790106,correct,,41,A,2024-05-17_14h12.59.508,gca_discrimination2,2022.2.4,144.00340997306813,
positions.xlsx,stimuli.xlsx,test.xlsx,stimuli/Test1.png,stimuli/Test2.png,stimuli/Social1.png,stimuli/Social2.png,stimuli/Nonsocial1.png,stimuli/Nonsocial2.png,stimuli/Social3.png,stimuli/Social4.png,stimuli/Nonsocial3.png,stimuli/Nonsocial4.png,"(0.7, 0.5)",test1,"(-0.7, -0.5)",test1,0,0,0,0,0,6,6,3,,,,,,1459.4188013999956,l,0.49075910000829026,correct,,41,A,2024-05-17_14h12.59.508,gca_discrimination2,2022.2.4,144.00340997306813,
positions.xlsx,stimuli.xlsx,test.xlsx,stimuli/Test1.png,stimuli/Test2.png,stimuli/Social1.png,stimuli/Social2.png,stimuli/Nonsocial1.png,stimuli/Nonsocial2.png,stimuli/Social3.png,stimuli/Social4.png,stimuli/Nonsocial3.png,stimuli/Nonsocial4.png,"(-0.7, -0.5)",test2,"(0.7, -0.5)",test1,0,0,0,0,0,7,7,8,,,,,,1464.1339013999968,ä,0.8626471000025049,correct,,41,A,2024-05-17_14h12.59.508,gca_discrimination2,2022.2.4,144.00340997306813,
positions.xlsx,stimuli.xlsx,test.xlsx,stimuli/Test1.png,stimuli/Test2.png,stimuli/Social1.png,stimuli/Social2.png,stimuli/Nonsocial1.png,stimuli/Nonsocial2.png,stimuli/Social3.png,stimuli/Social4.png,stimuli/Nonsocial3.png,stimuli/Nonsocial4.png,"(0.7, -0.5)",test1,"(-0.7, -0.5)",test2,0,0,0,0,0,8,8,2,,,,,,1469.3420344000042,ä,0.8150577000051271,correct,,41,A,2024-05-17_14h12.59.508,gca_discrimination2,2022.2.4,144.00340997306813,
positions.xlsx,stimuli.xlsx,test.xlsx,stimuli/Test1.png,stimuli/Test2.png,stimuli/Social1.png,stimuli/Social2.png,stimuli/Nonsocial1.png,stimuli/Nonsocial2.png,stimuli/Social3.png,stimuli/Social4.png,stimuli/Nonsocial3.png,stimuli/Nonsocial4.png,"(-0.7, -0.5)",test2,"(0.7, -0.5)",test2,0,0,0,0,0,9,9,7,,,,,,1474.7793588000059,l,0.3944967999996152,correct,,41,A,2024-05-17_14h12.59.508,gca_discrimination2,2022.2.4,144.00340997306813,
positions.xlsx,stimuli.xlsx,test.xlsx,stimuli/Test1.png,stimuli/Test2.png,stimuli/Social1.png,stimuli/Social2.png,stimuli/Nonsocial1.png,stimuli/Nonsocial2.png,stimuli/Social3.png,stimuli/Social4.png,stimuli/Nonsocial3.png,stimuli/Nonsocial4.png,"(-0.7, 0.5)",cs_neg_s_new,"(0.7, -0.5)",cs_pos_s,0,0,0,0,,,,,0,0,0,10,,1495.0909714000009,l,1.1377093000046443,wrong,1478.1819464,41,A,2024-05-17_14h12.59.508,gca_discrimination2,2022.2.4,144.00340997306813,
positions.xlsx,stimuli.xlsx,test.xlsx,stimuli/Test1.png,stimuli/Test2.png,stimuli/Social1.png,stimuli/Social2.png,stimuli/Nonsocial1.png,stimuli/Nonsocial2.png,stimuli/Social3.png,stimuli/Social4.png,stimuli/Nonsocial3.png,stimuli/Nonsocial4.png,"(0.7, 0.5)",cs_neg_ns_new,"(-0.7, 0.5)",cs_neg_ns,0,0,0,0,,,,,0,1,1,35,,1498.4520073999884,l,0.6964193999883719,wrong,,41,A,2024-05-17_14h12.59.508,gca_discrimination2,2022.2.4,144.00340997306813,
positions.xlsx,stimuli.xlsx,test.xlsx,stimuli/Test1.png,stimuli/Test2.png,stimuli/Social1.png,stimuli/Social2.png,stimuli/Nonsocial1.png,stimuli/Nonsocial2.png,stimuli/Social3.png,stimuli/Social4.png,stimuli/Nonsocial3.png,stimuli/Nonsocial4.png,"(0.7, 0.5)",cs_neg_s_new,"(-0.7, 0.5)",cs_pos_s,0,0,0,0,,,,,0,2,2,18,,1501.278247499984,ä,0.7350333999784198,correct,,41,A,2024-05-17_14h12.59.508,gca_discrimination2,2022.2.4,144.00340997306813,
positions.xlsx,stimuli.xlsx,test.xlsx,stimuli/Test1.png,stimuli/Test2.png,stimuli/Social1.png,stimuli/Social2.png,stimuli/Nonsocial1.png,stimuli/Nonsocial2.png,stimuli/Social3.png,stimuli/Social4.png,stimuli/Nonsocial3.png,stimuli/Nonsocial4.png,"(-0.7, 0.5)",cs_pos_s_new,"(0.7, -0.5)",cs_pos_s,0,0,0,0,,,,,0,3,3,1,,1503.8683956000023,l,0.40850739998859353,wrong,,41,A,2024-05-17_14h12.59.508,gca_discrimination2,2022.2.4,144.00340997306813,
positions.xlsx,stimuli.xlsx,test.xlsx,stimuli/Test1.png,stimuli/Test2.png,stimuli/Social1.png,stimuli/Social2.png,stimuli/Nonsocial1.png,stimuli/Nonsocial2.png,stimuli/Social3.png,stimuli/Social4.png,stimuli/Nonsocial3.png,stimuli/Nonsocial4.png,"(-0.7, 0.5)",cs_pos_s_new,"(0.7, 0.5)",cs_neg_s,0,0,0,0,,,,,0,4,4,13,,1506.2224391000054,ä,0.8309284999850206,correct,,41,A,2024-05-17_14h12.59.508,gca_discrimination2,2022.2.4,144.00340997306813,
positions.xlsx,stimuli.xlsx,test.xlsx,stimuli/Test1.png,stimuli/Test2.png,stimuli/Social1.png,stimuli/Social2.png,stimuli/Nonsocial1.png,stimuli/Nonsocial2.png,stimuli/Social3.png,stimuli/Social4.png,stimuli/Nonsocial3.png,stimuli/Nonsocial4.png,"(-0.7, -0.5)",cs_pos_s,"(0.7, 0.5)",cs_pos_s,0,0,0,0,,,,,0,5,5,57,,1508.902915899991,l,0.4697693999914918,correct,,41,A,2024-05-17_14h12.59.508,gca_discrimination2,2022.2.4,144.00340997306813,
positions.xlsx,stimuli.xlsx,test.xlsx,stimuli/Test1.png,stimuli/Test2.png,stimuli/Social1.png,stimuli/Social2.png,stimuli/Nonsocial1.png,stimuli/Nonsocial2.png,stimuli/Social3.png,stimuli/Social4.png,stimuli/Nonsocial3.png,stimuli/Nonsocial4.png,"(0.7, -0.5)",cs_pos_ns,"(-0.7, -0.5)",cs_pos_ns,0,0,0,0,,,,,0,6,6,88,,1511.4653324999963,l,0.4841018999868538,correct,,41,A,2024-05-17_14h12.59.508,gca_discrimination2,2022.2.4,144.00340997306813,
positions.xlsx,stimuli.xlsx,test.xlsx,stimuli/Test1.png,stimuli/Test2.png,stimuli/Social1.png,stimuli/Social2.png,stimuli/Nonsocial1.png,stimuli/Nonsocial2.png,stimuli/Social3.png,stimuli/Social4.png,stimuli/Nonsocial3.png,stimuli/Nonsocial4.png,"(0.7, -0.5)",cs_pos_ns_new,"(0.7, 0.5)",cs_pos_ns,0,0,0,0,,,,,0,7,7,33,,1514.020763699984,l,0.576262200018391,wrong,,41,A,2024-05-17_14h12.59.508,gca_discrimination2,2022.2.4,144.00340997306813,
positions.xlsx,stimuli.xlsx,test.xlsx,stimuli/Test1.png,stimuli/Test2.png,stimuli/Social1.png,stimuli/Social2.png,stimuli/Nonsocial1.png,stimuli/Nonsocial2.png,stimuli/Social3.png,stimuli/Social4.png,stimuli/Nonsocial3.png,stimuli/Nonsocial4.png,"(0.7, -0.5)",cs_neg_ns,"(-0.7, 0.5)",cs_pos_ns,0,0,0,0,,,,,0,8,8,25,,1516.4651232000033,ä,0.45241949998307973,correct,,41,A,2024-05-17_14h12.59.508,gca_discrimination2,2022.2.4,144.00340997306813,
positions.xlsx,stimuli.xlsx,test.xlsx,stimuli/Test1.png,stimuli/Test2.png,stimuli/Social1.png,stimuli/Social2.png,stimuli/Nonsocial1.png,stimuli/Nonsocial2.png,stimuli/Social3.png,stimuli/Social4.png,stimuli/Nonsocial3.png,stimuli/Nonsocial4.png,"(-0.7, 0.5)",cs_pos_s_new,"(0.7, 0.5)",cs_pos_s_new,0,0,0,0,,,,,0,9,9,58,,1518.8747598000045,l,0.369786600000225,correct,,41,A,2024-05-17_14h12.59.508,gca_discrimination2,2022.2.4,144.00340997306813,
positions.xlsx,stimuli.xlsx,test.xlsx,stimuli/Test1.png,stimuli/Test2.png,stimuli/Social1.png,stimuli/Social2.png,stimuli/Nonsocial1.png,stimuli/Nonsocial2.png,stimuli/Social3.png,stimuli/Social4.png,stimuli/Nonsocial3.png,stimuli/Nonsocial4.png,"(-0.7, 0.5)",cs_pos_ns_new,"(0.7, -0.5)",cs_pos_ns,0,0,0,0,,,,,0,10,10,27,,1521.8121263000066,ä,0.9689520999963861,correct,,41,A,2024-05-17_14h12.59.508,gca_discrimination2,2022.2.4,144.00340997306813,
positions.xlsx,stimuli.xlsx,test.xlsx,stimuli/Test1.png,stimuli/Test2.png,stimuli/Social1.png,stimuli/Social2.png,stimuli/Nonsocial1.png,stimuli/Nonsocial2.png,stimuli/Social3.png,stimuli/Social4.png,stimuli/Nonsocial3.png,stimuli/Nonsocial4.png,"(0.7, 0.5)",cs_neg_ns_new,"(-0.7, 0.5)",cs_neg_ns_new,0,0,0,0,,,,,0,11,11,92,,1525.1939390999905,l,0.34743449999950826,correct,,41,A,2024-05-17_14h12.59.508,gca_discrimination2,2022.2.4,144.00340997306813,
positions.xlsx,stimuli.xlsx,test.xlsx,stimuli/Test1.png,stimuli/Test2.png,stimuli/Social1.png,stimuli/Social2.png,stimuli/Nonsocial1.png,stimuli/Nonsocial2.png,stimuli/Social3.png,stimuli/Social4.png,stimuli/Nonsocial3.png,stimuli/Nonsocial4.png,"(0.7, 0.5)",cs_pos_s,"(-0.7, -0.5)",cs_pos_s_new,0,0,0,0,,,,,0,12,12,5,,1528.1243611999962,ä,0.6640221000125166,correct,,41,A,2024-05-17_14h12.59.508,gca_discrimination2,2022.2.4,144.00340997306813,
positions.xlsx,stimuli.xlsx,test.xlsx,stimuli/Test1.png,stimuli/Test2.png,stimuli/Social1.png,stimuli/Social2.png,stimuli/Nonsocial1.png,stimuli/Nonsocial2.png,stimuli/Social3.png,stimuli/Social4.png,stimuli/Nonsocial3.png,stimuli/Nonsocial4.png,"(0.7, -0.5)",cs_pos_ns,"(0.7, 0.5)",cs_pos_ns,0,0,0,0,,,,,0,13,13,80,,1531.103422699991,l,0.9090507999935653,correct,,41,A,2024-05-17_14h12.59.508,gca_discrimination2,2022.2.4,144.00340997306813,
positions.xlsx,stimuli.xlsx,test.xlsx,stimuli/Test1.png,stimuli/Test2.png,stimuli/Social1.png,stimuli/Social2.png,stimuli/Nonsocial1.png,stimuli/Nonsocial2.png,stimuli/Social3.png,stimuli/Social4.png,stimuli/Nonsocial3.png,stimuli/Nonsocial4.png,"(0.7, -0.5)",cs_pos_s,"(-0.7, 0.5)",cs_pos_s,0,0,0,0,,,,,0,14,14,49,,1534.1588588999875,l,0.7899507000111043,correct,,41,A,2024-05-17_14h12.59.508,gca_discrimination2,2022.2.4,144.00340997306813,
positions.xlsx,stimuli.xlsx,test.xlsx,stimuli/Test1.png,stimuli/Test2.png,stimuli/Social1.png,stimuli/Social2.png,stimuli/Nonsocial1.png,stimuli/Nonsocial2.png,stimuli/Social3.png,stimuli/Social4.png,stimuli/Nonsocial3.png,stimuli/Nonsocial4.png,"(0.7, -0.5)",cs_neg_ns,"(0.7, 0.5)",cs_neg_ns_new,0,0,0,0,,,,,0,15,15,46,,1537.1795544000051,l,0.5615191999822855,wrong,,41,A,2024-05-17_14h12.59.508,gca_discrimination2,2022.2.4,144.00340997306813,
positions.xlsx,stimuli.xlsx,test.xlsx,stimuli/Test1.png,stimuli/Test2.png,stimuli/Social1.png,stimuli/Social2.png,stimuli/Nonsocial1.png,stimuli/Nonsocial2.png,stimuli/Social3.png,stimuli/Social4.png,stimuli/Nonsocial3.png,stimuli/Nonsocial4.png,"(0.7, 0.5)",cs_pos_s,"(-0.7, 0.5)",cs_pos_s,0,0,0,0,,,,,0,16,16,66,,1540.2558165999944,l,0.43695790000492707,correct,,41,A,2024-05-17_14h12.59.508,gca_discrimination2,2022.2.4,144.00340997306813,
positions.xlsx,stimuli.xlsx,test.xlsx,stimuli/Test1.png,stimuli/Test2.png,stimuli/Social1.png,stimuli/Social2.png,stimuli/Nonsocial1.png,stimuli/Nonsocial2.png,stimuli/Social3.png,stimuli/Social4.png,stimuli/Nonsocial3.png,stimuli/Nonsocial4.png,"(-0.7, -0.5)",cs_pos_ns,"(0.7, 0.5)",cs_pos_ns,0,0,0,0,,,,,0,17,17,91,,1543.0335085999977,ä,1.1077333000139333,wrong,,41,A,2024-05-17_14h12.59.508,gca_discrimination2,2022.2.4,144.00340997306813,
positions.xlsx,stimuli.xlsx,test.xlsx,stimuli/Test1.png,stimuli/Test2.png,stimuli/Social1.png,stimuli/Social2.png,stimuli/Nonsocial1.png,stimuli/Nonsocial2.png,stimuli/Social3.png,stimuli/Social4.png,stimuli/Nonsocial3.png,stimuli/Nonsocial4.png,"(0.7, -0.5)",cs_pos_s,"(-0.7, 0.5)",cs_pos_s_new,0,0,0,0,,,,,0,18,18,4,,1546.2694634000072,ä,0.567193099996075,correct,,41,A,2024-05-17_14h12.59.508,gca_discrimination2,2022.2.4,144.00340997306813,
positions.xlsx,stimuli.xlsx,test.xlsx,stimuli/Test1.png,stimuli/Test2.png,stimuli/Social1.png,stimuli/Social2.png,stimuli/Nonsocial1.png,stimuli/Nonsocial2.png,stimuli/Social3.png,stimuli/Social4.png,stimuli/Nonsocial3.png,stimuli/Nonsocial4.png,"(0.7, -0.5)",cs_neg_s_new,"(-0.7, 0.5)",cs_neg_s_new,0,0,0,0,,,,,0,19,19,67,,1549.512413599994,ä,0.8691863999993075,wrong,,41,A,2024-05-17_14h12.59.508,gca_discrimination2,2022.2.4,144.00340997306813,
positions.xlsx,stimuli.xlsx,test.xlsx,stimuli/Test1.png,stimuli/Test2.png,stimuli/Social1.png,stimuli/Social2.png,stimuli/Nonsocial1.png,stimuli/Nonsocial2.png,stimuli/Social3.png,stimuli/Social4.png,stimuli/Nonsocial3.png,stimuli/Nonsocial4.png,"(-0.7, 0.5)",cs_pos_s_new,"(0.7, -0.5)",cs_pos_s_new,0,0,0,0,,,,,0,20,20,54,,1553.0817120999855,l,1.4513674000045285,correct,,41,A,2024-05-17_14h12.59.508,gca_discrimination2,2022.2.4,144.00340997306813,
positions.xlsx,stimuli.xlsx,test.xlsx,stimuli/Test1.png,stimuli/Test2.png,stimuli/Social1.png,stimuli/Social2.png,stimuli/Nonsocial1.png,stimuli/Nonsocial2.png,stimuli/Social3.png,stimuli/Social4.png,stimuli/Nonsocial3.png,stimuli/Nonsocial4.png,"(-0.7, 0.5)",cs_pos_ns,"(-0.7, -0.5)",cs_pos_ns,0,0,0,0,,,,,0,21,21,90,,1557.0954648999905,l,0.6943938000185881,correct,,41,A,2024-05-17_14h12.59.508,gca_discrimination2,2022.2.4,144.00340997306813,
positions.xlsx,stimuli.xlsx,test.xlsx,stimuli/Test1.png,stimuli/Test2.png,stimuli/Social1.png,stimuli/Social2.png,stimuli/Nonsocial1.png,stimuli/Nonsocial2.png,stimuli/Social3.png,stimuli/Social4.png,stimuli/Nonsocial3.png,stimuli/Nonsocial4.png,"(0.7, 0.5)",cs_pos_s,"(0.7, -0.5)",cs_neg_s_new,0,0,0,0,,,,,0,22,22,16,,1560.1300111000019,ä,0.6514527999970596,correct,,41,A,2024-05-17_14h12.59.508,gca_discrimination2,2022.2.4,144.00340997306813,
positions.xlsx,stimuli.xlsx,test.xlsx,stimuli/Test1.png,stimuli/Test2.png,stimuli/Social1.png,stimuli/Social2.png,stimuli/Nonsocial1.png,stimuli/Nonsocial2.png,stimuli/Social3.png,stimuli/Social4.png,stimuli/Nonsocial3.png,stimuli/Nonsocial4.png,"(0.7, 0.5)",cs_pos_s_new,"(-0.7, 0.5)",cs_neg_s_new,0,0,0,0,,,,,0,23,23,2,,1562.9701986,ä,0.4988110999984201,correct,,41,A,2024-05-17_14h12.59.508,gca_discrimination2,2022.2.4,144.00340997306813,
positions.xlsx,stimuli.xlsx,test.xlsx,stimuli/Test1.png,stimuli/Test2.png,stimuli/Social1.png,stimuli/Social2.png,stimuli/Nonsocial1.png,stimuli/Nonsocial2.png,stimuli/Social3.png,stimuli/Social4.png,stimuli/Nonsocial3.png,stimuli/Nonsocial4.png,"(-0.7, -0.5)",cs_pos_ns,"(-0.7, 0.5)",cs_neg_ns_new,0,0,0,0,,,,,0,24,24,34,,1566.108938499994,l,1.2802618000132497,wrong,,41,A,2024-05-17_14h12.59.508,gca_discrimination2,2022.2.4,144.00340997306813,
positions.xlsx,stimuli.xlsx,test.xlsx,stimuli/Test1.png,stimuli/Test2.png,stimuli/Social1.png,stimuli/Social2.png,stimuli/Nonsocial1.png,stimuli/Nonsocial2.png,stimuli/Social3.png,stimuli/Social4.png,stimuli/Nonsocial3.png,stimuli/Nonsocial4.png,"(-0.7, 0.5)",cs_neg_ns,"(0.7, 0.5)",cs_neg_ns_new,0,0,0,0,,,,,0,25,25,26,,1569.490747600008,l,0.762686499976553,wrong,,41,A,2024-05-17_14h12.59.508,gca_discrimination2,2022.2.4,144.00340997306813,
positions.xlsx,stimuli.xlsx,test.xlsx,stimuli/Test1.png,stimuli/Test2.png,stimuli/Social1.png,stimuli/Social2.png,stimuli/Nonsocial1.png,stimuli/Nonsocial2.png,stimuli/Social3.png,stimuli/Social4.png,stimuli/Nonsocial3.png,stimuli/Nonsocial4.png,"(0.7, 0.5)",cs_pos_ns,"(-0.7, -0.5)",cs_neg_ns,0,0,0,0,,,,,0,26,26,45,,1572.0878974999941,ä,1.2609034999914002,correct,,41,A,2024-05-17_14h12.59.508,gca_discrimination2,2022.2.4,144.00340997306813,
positions.xlsx,stimuli.xlsx,test.xlsx,stimuli/Test1.png,stimuli/Test2.png,stimuli/Social1.png,stimuli/Social2.png,stimuli/Nonsocial1.png,stimuli/Nonsocial2.png,stimuli/Social3.png,stimuli/Social4.png,stimuli/Nonsocial3.png,stimuli/Nonsocial4.png,"(0.7, -0.5)",cs_pos_s_new,"(-0.7, -0.5)",cs_neg_s_new,0,0,0,0,,,,,0,27,27,11,,1575.8724572999927,l,0.3725134000123944,wrong,,41,A,2024-05-17_14h12.59.508,gca_discrimination2,2022.2.4,144.00340997306813,
positions.xlsx,stimuli.xlsx,test.xlsx,stimuli/Test1.png,stimuli/Test2.png,stimuli/Social1.png,stimuli/Social2.png,stimuli/Nonsocial1.png,stimuli/Nonsocial2.png,stimuli/Social3.png,stimuli/Social4.png,stimuli/Nonsocial3.png,stimuli/Nonsocial4.png,"(0.7, -0.5)",cs_neg_ns_new,"(-0.7, 0.5)",cs_neg_ns_new,0,0,0,0,,,,,0,28,28,89,,1578.5459379999957,l,0.7472168999956921,correct,,41,A,2024-05-17_14h12.59.508,gca_discrimination2,2022.2.4,144.00340997306813,
positions.xlsx,stimuli.xlsx,test.xlsx,stimuli/Test1.png,stimuli/Test2.png,stimuli/Social1.png,stimuli/Social2.png,stimuli/Nonsocial1.png,stimuli/Nonsocial2.png,stimuli/Social3.png,stimuli/Social4.png,stimuli/Nonsocial3.png,stimuli/Nonsocial4.png,"(0.7, 0.5)",cs_pos_ns,"(0.7, -0.5)",cs_pos_ns,0,0,0,0,,,,,0,29,29,75,,1581.5319670999888,l,0.6331672000233084,correct,,41,A,2024-05-17_14h12.59.508,gca_discrimination2,2022.2.4,144.00340997306813,
positions.xlsx,stimuli.xlsx,test.xlsx,stimuli/Test1.png,stimuli/Test2.png,stimuli/Social1.png,stimuli/Social2.png,stimuli/Nonsocial1.png,stimuli/Nonsocial2.png,stimuli/Social3.png,stimuli/Social4.png,stimuli/Nonsocial3.png,stimuli/Nonsocial4.png,"(0.7, 0.5)",cs_neg_ns,"(0.7, -0.5)",cs_neg_ns,0,0,0,0,,,,,0,30,30,77,,1584.760963799985,l,0.45291000002180226,correct,,41,A,2024-05-17_14h12.59.508,gca_discrimination2,2022.2.4,144.00340997306813,
positions.xlsx,stimuli.xlsx,test.xlsx,stimuli/Test1.png,stimuli/Test2.png,stimuli/Social1.png,stimuli/Social2.png,stimuli/Nonsocial1.png,stimuli/Nonsocial2.png,stimuli/Social3.png,stimuli/Social4.png,stimuli/Nonsocial3.png,stimuli/Nonsocial4.png,"(-0.7, -0.5)",cs_neg_ns_new,"(0.7, 0.5)",cs_pos_ns_new,0,0,0,0,,,,,0,31,31,43,,1587.691415999987,ä,0.7531572000007145,correct,,41,A,2024-05-17_14h12.59.508,gca_discrimination2,2022.2.4,144.00340997306813,
positions.xlsx,stimuli.xlsx,test.xlsx,stimuli/Test1.png,stimuli/Test2.png,stimuli/Social1.png,stimuli/Social2.png,stimuli/Nonsocial1.png,stimuli/Nonsocial2.png,stimuli/Social3.png,stimuli/Social4.png,stimuli/Nonsocial3.png,stimuli/Nonsocial4.png,"(-0.7, -0.5)",cs_pos_s_new,"(0.7, 0.5)",cs_pos_s_new,0,0,0,0,,,,,0,32,32,70,,1590.462130800006,l,0.6641156999976374,correct,,41,A,2024-05-17_14h12.59.508,gca_discrimination2,2022.2.4,144.00340997306813,
positions.xlsx,stimuli.xlsx,test.xlsx,stimuli/Test1.png,stimuli/Test2.png,stimuli/Social1.png,stimuli/Social2.png,stimuli/Nonsocial1.png,stimuli/Nonsocial2.png,stimuli/Social3.png,stimuli/Social4.png,stimuli/Nonsocial3.png,stimuli/Nonsocial4.png,"(-0.7, 0.5)",cs_neg_s,"(0.7, -0.5)",cs_pos_s,0,0,0,0,,,,,0,33,33,21,,1593.1286409999884,ä,0.7158882000076119,correct,,41,A,2024-05-17_14h12.59.508,gca_discrimination2,2022.2.4,144.00340997306813,
positions.xlsx,stimuli.xlsx,test.xlsx,stimuli/Test1.png,stimuli/Test2.png,stimuli/Social1.png,stimuli/Social2.png,stimuli/Nonsocial1.png,stimuli/Nonsocial2.png,stimuli/Social3.png,stimuli/Social4.png,stimuli/Nonsocial3.png,stimuli/Nonsocial4.png,"(-0.7, 0.5)",cs_pos_s_new,"(0.7, -0.5)",cs_neg_s,0,0,0,0,,,,,0,34,34,14,,1595.7813535000023,ä,0.5356434999848716,correct,,41,A,2024-05-17_14h12.59.508,gca_discrimination2,2022.2.4,144.00340997306813,
positions.xlsx,stimuli.xlsx,test.xlsx,stimuli/Test1.png,stimuli/Test2.png,stimuli/Social1.png,stimuli/Social2.png,stimuli/Nonsocial1.png,stimuli/Nonsocial2.png,stimuli/Social3.png,stimuli/Social4.png,stimuli/Nonsocial3.png,stimuli/Nonsocial4.png,"(-0.7, -0.5)",cs_neg_s,"(0.7, 0.5)",cs_neg_s,0,0,0,0,,,,,0,35,35,53,,1598.9826208000013,l,0.6472775999864098,correct,,41,A,2024-05-17_14h12.59.508,gca_discrimination2,2022.2.4,144.00340997306813,
positions.xlsx,stimuli.xlsx,test.xlsx,stimuli/Test1.png,stimuli/Test2.png,stimuli/Social1.png,stimuli/Social2.png,stimuli/Nonsocial1.png,stimuli/Nonsocial2.png,stimuli/Social3.png,stimuli/Social4.png,stimuli/Nonsocial3.png,stimuli/Nonsocial4.png,"(-0.7, -0.5)",cs_neg_ns_new,"(0.7, -0.5)",cs_neg_ns_new,0,0,0,0,,,,,0,36,36,86,,1602.0866806999838,l,0.5816656999813858,correct,,41,A,2024-05-17_14h12.59.508,gca_discrimination2,2022.2.4,144.00340997306813,
positions.xlsx,stimuli.xlsx,test.xlsx,stimuli/Test1.png,stimuli/Test2.png,stimuli/Social1.png,stimuli/Social2.png,stimuli/Nonsocial1.png,stimuli/Nonsocial2.png,stimuli/Social3.png,stimuli/Social4.png,stimuli/Nonsocial3.png,stimuli/Nonsocial4.png,"(-0.7, 0.5)",cs_pos_s,"(-0.7, -0.5)",cs_pos_s,0,0,0,0,,,,,0,37,37,59,,1604.899038100004,l,0.7223431999736931,correct,,41,A,2024-05-17_14h12.59.508,gca_discrimination2,2022.2.4,144.00340997306813,
positions.xlsx,stimuli.xlsx,test.xlsx,stimuli/Test1.png,stimuli/Test2.png,stimuli/Social1.png,stimuli/Social2.png,stimuli/Nonsocial1.png,stimuli/Nonsocial2.png,stimuli/Social3.png,stimuli/Social4.png,stimuli/Nonsocial3.png,stimuli/Nonsocial4.png,"(0.7, 0.5)",cs_pos_s,"(-0.7, -0.5)",cs_pos_s,0,0,0,0,,,,,0,38,38,48,,1607.9892169999948,l,1.3362115999916568,correct,,41,A,2024-05-17_14h12.59.508,gca_discrimination2,2022.2.4,144.00340997306813,
positions.xlsx,stimuli.xlsx,test.xlsx,stimuli/Test1.png,stimuli/Test2.png,stimuli/Social1.png,stimuli/Social2.png,stimuli/Nonsocial1.png,stimuli/Nonsocial2.png,stimuli/Social3.png,stimuli/Social4.png,stimuli/Nonsocial3.png,stimuli/Nonsocial4.png,"(-0.7, 0.5)",cs_pos_ns_new,"(-0.7, -0.5)",cs_pos_ns_new,0,0,0,0,,,,,0,39,39,78,,1611.9196286000079,l,0.5653489999822341,correct,,41,A,2024-05-17_14h12.59.508,gca_discrimination2,2022.2.4,144.00340997306813,
positions.xlsx,stimuli.xlsx,test.xlsx,stimuli/Test1.png,stimuli/Test2.png,stimuli/Social1.png,stimuli/Social2.png,stimuli/Nonsocial1.png,stimuli/Nonsocial2.png,stimuli/Social3.png,stimuli/Social4.png,stimuli/Nonsocial3.png,stimuli/Nonsocial4.png,"(-0.7, -0.5)",cs_pos_s,"(-0.7, 0.5)",cs_pos_s,0,0,0,0,,,,,0,40,40,56,,1614.9472336999897,l,0.5223471999925096,correct,,41,A,2024-05-17_14h12.59.508,gca_discrimination2,2022.2.4,144.00340997306813,
positions.xlsx,stimuli.xlsx,test.xlsx,stimuli/Test1.png,stimuli/Test2.png,stimuli/Social1.png,stimuli/Social2.png,stimuli/Nonsocial1.png,stimuli/Nonsocial2.png,stimuli/Social3.png,stimuli/Social4.png,stimuli/Nonsocial3.png,stimuli/Nonsocial4.png,"(-0.7, -0.5)",cs_neg_ns,"(0.7, 0.5)",cs_neg_ns_new,0,0,0,0,,,,,0,41,41,28,,1617.6415992999973,l,1.2917870999954175,wrong,,41,A,2024-05-17_14h12.59.508,gca_discrimination2,2022.2.4,144.00340997306813,
positions.xlsx,stimuli.xlsx,test.xlsx,stimuli/Test1.png,stimuli/Test2.png,stimuli/Social1.png,stimuli/Social2.png,stimuli/Nonsocial1.png,stimuli/Nonsocial2.png,stimuli/Social3.png,stimuli/Social4.png,stimuli/Nonsocial3.png,stimuli/Nonsocial4.png,"(0.7, -0.5)",cs_neg_s_new,"(-0.7, -0.5)",cs_pos_s_new,0,0,0,0,,,,,0,42,42,3,,1621.0303405000013,ä,0.7518921000009868,correct,,41,A,2024-05-17_14h12.59.508,gca_discrimination2,2022.2.4,144.00340997306813,
positions.xlsx,stimuli.xlsx,test.xlsx,stimuli/Test1.png,stimuli/Test2.png,stimuli/Social1.png,stimuli/Social2.png,stimuli/Nonsocial1.png,stimuli/Nonsocial2.png,stimuli/Social3.png,stimuli/Social4.png,stimuli/Nonsocial3.png,stimuli/Nonsocial4.png,"(0.7, 0.5)",cs_neg_ns,"(-0.7, 0.5)",cs_pos_ns,0,0,0,0,,,,,0,43,43,36,,1623.787208099995,l,0.521658000012394,wrong,,41,A,2024-05-17_14h12.59.508,gca_discrimination2,2022.2.4,144.00340997306813,
positions.xlsx,stimuli.xlsx,test.xlsx,stimuli/Test1.png,stimuli/Test2.png,stimuli/Social1.png,stimuli/Social2.png,stimuli/Nonsocial1.png,stimuli/Nonsocial2.png,stimuli/Social3.png,stimuli/Social4.png,stimuli/Nonsocial3.png,stimuli/Nonsocial4.png,"(0.7, 0.5)",cs_pos_ns_new,"(-0.7, -0.5)",cs_neg_ns,0,0,0,0,,,,,0,44,44,38,,1626.4120788,l,1.02428109999164,wrong,,41,A,2024-05-17_14h12.59.508,gca_discrimination2,2022.2.4,144.00340997306813,
positions.xlsx,stimuli.xlsx,test.xlsx,stimuli/Test1.png,stimuli/Test2.png,stimuli/Social1.png,stimuli/Social2.png,stimuli/Nonsocial1.png,stimuli/Nonsocial2.png,stimuli/Social3.png,stimuli/Social4.png,stimuli/Nonsocial3.png,stimuli/Nonsocial4.png,"(0.7, 0.5)",cs_pos_s_new,"(-0.7, -0.5)",cs_pos_s_new,0,0,0,0,,,,,0,45,45,71,,1629.6272402000031,l,0.5696216000069398,correct,,41,A,2024-05-17_14h12.59.508,gca_discrimination2,2022.2.4,144.00340997306813,
positions.xlsx,stimuli.xlsx,test.xlsx,stimuli/Test1.png,stimuli/Test2.png,stimuli/Social1.png,stimuli/Social2.png,stimuli/Nonsocial1.png,stimuli/Nonsocial2.png,stimuli/Social3.png,stimuli/Social4.png,stimuli/Nonsocial3.png,stimuli/Nonsocial4.png,"(0.7, -0.5)",cs_pos_ns_new,"(-0.7, -0.5)",cs_pos_ns_new,0,0,0,0,,,,,0,46,46,95,,1632.4812575999822,l,0.5887250999803655,correct,,41,A,2024-05-17_14h12.59.508,gca_discrimination2,2022.2.4,144.00340997306813,
positions.xlsx,stimuli.xlsx,test.xlsx,stimuli/Test1.png,stimuli/Test2.png,stimuli/Social1.png,stimuli/Social2.png,stimuli/Nonsocial1.png,stimuli/Nonsocial2.png,stimuli/Social3.png,stimuli/Social4.png,stimuli/Nonsocial3.png,stimuli/Nonsocial4.png,"(0.7, -0.5)",cs_neg_ns,"(0.7, 0.5)",cs_pos_ns,0,0,0,0,,,,,0,47,47,37,,1635.8630622999917,ä,0.8710654000169598,correct,,41,A,2024-05-17_14h12.59.508,gca_discrimination2,2022.2.4,144.00340997306813,
positions.xlsx,stimuli.xlsx,test.xlsx,stimuli/Test1.png,stimuli/Test2.png,stimuli/Social1.png,stimuli/Social2.png,stimuli/Nonsocial1.png,stimuli/Nonsocial2.png,stimuli/Social3.png,stimuli/Social4.png,stimuli/Nonsocial3.png,stimuli/Nonsocial4.png,"(0.7, 0.5)",cs_pos_s,"(0.7, -0.5)",cs_neg_s,0,0,0,0,,,,,0,48,48,23,,1639.0296104000008,ä,1.168621599994367,correct,,41,A,2024-05-17_14h12.59.508,gca_discrimination2,2022.2.4,144.00340997306813,
positions.xlsx,stimuli.xlsx,test.xlsx,stimuli/Test1.png,stimuli/Test2.png,stimuli/Social1.png,stimuli/Social2.png,stimuli/Nonsocial1.png,stimuli/Nonsocial2.png,stimuli/Social3.png,stimuli/Social4.png,stimuli/Nonsocial3.png,stimuli/Nonsocial4.png,"(-0.7, 0.5)",cs_neg_ns,"(-0.7, -0.5)",cs_pos_ns_new,0,0,0,0,,,,,0,49,49,42,,1642.2447599000006,ä,1.0635174000053667,correct,,41,A,2024-05-17_14h12.59.508,gca_discrimination2,2022.2.4,144.00340997306813,
positions.xlsx,stimuli.xlsx,test.xlsx,stimuli/Test1.png,stimuli/Test2.png,stimuli/Social1.png,stimuli/Social2.png,stimuli/Nonsocial1.png,stimuli/Nonsocial2.png,stimuli/Social3.png,stimuli/Social4.png,stimuli/Nonsocial3.png,stimuli/Nonsocial4.png,"(0.7, 0.5)",cs_neg_ns,"(-0.7, 0.5)",cs_neg_ns,0,0,0,0,,,,,0,50,50,85,,1645.6335427000013,l,0.5473755999992136,correct,,41,A,2024-05-17_14h12.59.508,gca_discrimination2,2022.2.4,144.00340997306813,
positions.xlsx,stimuli.xlsx,test.xlsx,stimuli/Test1.png,stimuli/Test2.png,stimuli/Social1.png,stimuli/Social2.png,stimuli/Nonsocial1.png,stimuli/Nonsocial2.png,stimuli/Social3.png,stimuli/Social4.png,stimuli/Nonsocial3.png,stimuli/Nonsocial4.png,"(0.7, 0.5)",cs_neg_s,"(-0.7, 0.5)",cs_pos_s_new,0,0,0,0,,,,,0,51,51,12,,1648.8903425000026,ä,0.5538705000071786,correct,,41,A,2024-05-17_14h12.59.508,gca_discrimination2,2022.2.4,144.00340997306813,
positions.xlsx,stimuli.xlsx,test.xlsx,stimuli/Test1.png,stimuli/Test2.png,stimuli/Social1.png,stimuli/Social2.png,stimuli/Nonsocial1.png,stimuli/Nonsocial2.png,stimuli/Social3.png,stimuli/Social4.png,stimuli/Nonsocial3.png,stimuli/Nonsocial4.png,"(-0.7, 0.5)",cs_neg_s_new,"(0.7, 0.5)",cs_neg_s_new,0,0,0,0,,,,,0,52,52,52,,1652.0638065999956,l,1.0140822000103071,correct,,41,A,2024-05-17_14h12.59.508,gca_discrimination2,2022.2.4,144.00340997306813,
positions.xlsx,stimuli.xlsx,test.xlsx,stimuli/Test1.png,stimuli/Test2.png,stimuli/Social1.png,stimuli/Social2.png,stimuli/Nonsocial1.png,stimuli/Nonsocial2.png,stimuli/Social3.png,stimuli/Social4.png,stimuli/Nonsocial3.png,stimuli/Nonsocial4.png,"(0.7, -0.5)",cs_neg_s,"(-0.7, 0.5)",cs_neg_s_new,0,0,0,0,,,,,0,53,53,6,,1655.3831231000077,None,,no answer,,41,A,2024-05-17_14h12.59.508,gca_discrimination2,2022.2.4,144.00340997306813,
positions.xlsx,stimuli.xlsx,test.xlsx,stimuli/Test1.png,stimuli/Test2.png,stimuli/Social1.png,stimuli/Social2.png,stimuli/Nonsocial1.png,stimuli/Nonsocial2.png,stimuli/Social3.png,stimuli/Social4.png,stimuli/Nonsocial3.png,stimuli/Nonsocial4.png,"(0.7, 0.5)",cs_neg_ns_new,"(-0.7, -0.5)",cs_neg_ns_new,0,0,0,0,,,,,0,54,54,83,,1660.1746137999871,l,1.2858925000182353,correct,,41,A,2024-05-17_14h12.59.508,gca_discrimination2,2022.2.4,144.00340997306813,
positions.xlsx,stimuli.xlsx,test.xlsx,stimuli/Test1.png,stimuli/Test2.png,stimuli/Social1.png,stimuli/Social2.png,stimuli/Nonsocial1.png,stimuli/Nonsocial2.png,stimuli/Social3.png,stimuli/Social4.png,stimuli/Nonsocial3.png,stimuli/Nonsocial4.png,"(0.7, -0.5)",cs_pos_s,"(0.7, 0.5)",cs_pos_s_new,0,0,0,0,,,,,0,55,55,0,,1663.7161270999932,ä,0.5521810000063851,correct,,41,A,2024-05-17_14h12.59.508,gca_discrimination2,2022.2.4,144.00340997306813,
positions.xlsx,stimuli.xlsx,test.xlsx,stimuli/Test1.png,stimuli/Test2.png,stimuli/Social1.png,stimuli/Social2.png,stimuli/Nonsocial1.png,stimuli/Nonsocial2.png,stimuli/Social3.png,stimuli/Social4.png,stimuli/Nonsocial3.png,stimuli/Nonsocial4.png,"(-0.7, -0.5)",cs_pos_s,"(0.7, -0.5)",cs_neg_s_new,0,0,0,0,,,,,0,56,56,9,,1666.4174155000073,l,1.3798478999815416,wrong,,41,A,2024-05-17_14h12.59.508,gca_discrimination2,2022.2.4,144.00340997306813,
positions.xlsx,stimuli.xlsx,test.xlsx,stimuli/Test1.png,stimuli/Test2.png,stimuli/Social1.png,stimuli/Social2.png,stimuli/Nonsocial1.png,stimuli/Nonsocial2.png,stimuli/Social3.png,stimuli/Social4.png,stimuli/Nonsocial3.png,stimuli/Nonsocial4.png,"(-0.7, 0.5)",cs_neg_ns,"(0.7, 0.5)",cs_neg_ns,0,0,0,0,,,,,0,57,57,94,,1670.6047314000025,l,1.9043286999803968,correct,,41,A,2024-05-17_14h12.59.508,gca_discrimination2,2022.2.4,144.00340997306813,
positions.xlsx,stimuli.xlsx,test.xlsx,stimuli/Test1.png,stimuli/Test2.png,stimuli/Social1.png,stimuli/Social2.png,stimuli/Nonsocial1.png,stimuli/Nonsocial2.png,stimuli/Social3.png,stimuli/Social4.png,stimuli/Nonsocial3.png,stimuli/Nonsocial4.png,"(0.7, 0.5)",cs_neg_s_new,"(-0.7, 0.5)",cs_neg_s_new,0,0,0,0,,,,,0,58,58,64,,1675.0351230999804,l,1.1947022999811452,correct,,41,A,2024-05-17_14h12.59.508,gca_discrimination2,2022.2.4,144.00340997306813,
positions.xlsx,stimuli.xlsx,test.xlsx,stimuli/Test1.png,stimuli/Test2.png,stimuli/Social1.png,stimuli/Social2.png,stimuli/Nonsocial1.png,stimuli/Nonsocial2.png,stimuli/Social3.png,stimuli/Social4.png,stimuli/Nonsocial3.png,stimuli/Nonsocial4.png,"(0.7, -0.5)",cs_pos_ns_new,"(-0.7, 0.5)",cs_pos_ns_new,0,0,0,0,,,,,0,59,59,76,,1678.4307643999928,l,0.4067618999979459,correct,,41,A,2024-05-17_14h12.59.508,gca_discrimination2,2022.2.4,144.00340997306813,
positions.xlsx,stimuli.xlsx,test.xlsx,stimuli/Test1.png,stimuli/Test2.png,stimuli/Social1.png,stimuli/Social2.png,stimuli/Nonsocial1.png,stimuli/Nonsocial2.png,stimuli/Social3.png,stimuli/Social4.png,stimuli/Nonsocial3.png,stimuli/Nonsocial4.png,"(0.7, -0.5)",cs_neg_ns_new,"(0.7, 0.5)",cs_pos_ns_new,0,0,0,0,,,,,0,60,60,32,,1681.5070849999902,ä,0.601526600017678,correct,,41,A,2024-05-17_14h12.59.508,gca_discrimination2,2022.2.4,144.00340997306813,
positions.xlsx,stimuli.xlsx,test.xlsx,stimuli/Test1.png,stimuli/Test2.png,stimuli/Social1.png,stimuli/Social2.png,stimuli/Nonsocial1.png,stimuli/Nonsocial2.png,stimuli/Social3.png,stimuli/Social4.png,stimuli/Nonsocial3.png,stimuli/Nonsocial4.png,"(-0.7, 0.5)",cs_pos_ns,"(0.7, 0.5)",cs_pos_ns_new,0,0,0,0,,,,,0,61,61,31,,1684.583332099981,l,0.5570483999908902,wrong,,41,A,2024-05-17_14h12.59.508,gca_discrimination2,2022.2.4,144.00340997306813,
positions.xlsx,stimuli.xlsx,test.xlsx,stimuli/Test1.png,stimuli/Test2.png,stimuli/Social1.png,stimuli/Social2.png,stimuli/Nonsocial1.png,stimuli/Nonsocial2.png,stimuli/Social3.png,stimuli/Social4.png,stimuli/Nonsocial3.png,stimuli/Nonsocial4.png,"(-0.7, 0.5)",cs_neg_s,"(0.7, -0.5)",cs_neg_s,0,0,0,0,,,,,0,62,62,55,,1686.9582236999995,l,0.5824978000018746,correct,,41,A,2024-05-17_14h12.59.508,gca_discrimination2,2022.2.4,144.00340997306813,
positions.xlsx,stimuli.xlsx,test.xlsx,stimuli/Test1.png,stimuli/Test2.png,stimuli/Social1.png,stimuli/Social2.png,stimuli/Nonsocial1.png,stimuli/Nonsocial2.png,stimuli/Social3.png,stimuli/Social4.png,stimuli/Nonsocial3.png,stimuli/Nonsocial4.png,"(0.7, 0.5)",cs_neg_ns_new,"(0.7, -0.5)",cs_neg_ns_new,0,0,0,0,,,,,0,63,63,82,,1689.8956150999875,l,0.4297202000161633,correct,,41,A,2024-05-17_14h12.59.508,gca_discrimination2,2022.2.4,144.00340997306813,
positions.xlsx,stimuli.xlsx,test.xlsx,stimuli/Test1.png,stimuli/Test2.png,stimuli/Social1.png,stimuli/Social2.png,stimuli/Nonsocial1.png,stimuli/Nonsocial2.png,stimuli/Social3.png,stimuli/Social4.png,stimuli/Nonsocial3.png,stimuli/Nonsocial4.png,"(-0.7, 0.5)",cs_neg_s_new,"(-0.7, -0.5)",cs_neg_s_new,0,0,0,0,,,,,0,64,64,51,,1693.0343770000036,ä,1.5948214000090957,wrong,,41,A,2024-05-17_14h12.59.508,gca_discrimination2,2022.2.4,144.00340997306813,
positions.xlsx,stimuli.xlsx,test.xlsx,stimuli/Test1.png,stimuli/Test2.png,stimuli/Social1.png,stimuli/Social2.png,stimuli/Nonsocial1.png,stimuli/Nonsocial2.png,stimuli/Social3.png,stimuli/Social4.png,stimuli/Nonsocial3.png,stimuli/Nonsocial4.png,"(-0.7, -0.5)",cs_pos_ns_new,"(0.7, 0.5)",cs_pos_ns_new,0,0,0,0,,,,,0,65,65,73,,1696.7286752999935,l,0.8119331999914721,correct,,41,A,2024-05-17_14h12.59.508,gca_discrimination2,2022.2.4,144.00340997306813,
positions.xlsx,stimuli.xlsx,test.xlsx,stimuli/Test1.png,stimuli/Test2.png,stimuli/Social1.png,stimuli/Social2.png,stimuli/Nonsocial1.png,stimuli/Nonsocial2.png,stimuli/Social3.png,stimuli/Social4.png,stimuli/Nonsocial3.png,stimuli/Nonsocial4.png,"(-0.7, -0.5)",cs_pos_s_new,"(0.7, -0.5)",cs_pos_s_new,0,0,0,0,,,,,0,66,66,63,,1700.353551599983,l,0.5549845999921672,correct,,41,A,2024-05-17_14h12.59.508,gca_discrimination2,2022.2.4,144.00340997306813,
positions.xlsx,stimuli.xlsx,test.xlsx,stimuli/Test1.png,stimuli/Test2.png,stimuli/Social1.png,stimuli/Social2.png,stimuli/Nonsocial1.png,stimuli/Nonsocial2.png,stimuli/Social3.png,stimuli/Social4.png,stimuli/Nonsocial3.png,stimuli/Nonsocial4.png,"(0.7, 0.5)",cs_pos_ns_new,"(0.7, -0.5)",cs_pos_ns_new,0,0,0,0,,,,,0,67,67,84,,1703.1659324000066,l,0.5508222999924328,correct,,41,A,2024-05-17_14h12.59.508,gca_discrimination2,2022.2.4,144.00340997306813,
positions.xlsx,stimuli.xlsx,test.xlsx,stimuli/Test1.png,stimuli/Test2.png,stimuli/Social1.png,stimuli/Social2.png,stimuli/Nonsocial1.png,stimuli/Nonsocial2.png,stimuli/Social3.png,stimuli/Social4.png,stimuli/Nonsocial3.png,stimuli/Nonsocial4.png,"(0.7, 0.5)",cs_neg_ns_new,"(-0.7, -0.5)",cs_pos_ns_new,0,0,0,0,,,,,0,68,68,30,,1706.242138200003,ä,1.0504136999952607,correct,,41,A,2024-05-17_14h12.59.508,gca_discrimination2,2022.2.4,144.00340997306813,
positions.xlsx,stimuli.xlsx,test.xlsx,stimuli/Test1.png,stimuli/Test2.png,stimuli/Social1.png,stimuli/Social2.png,stimuli/Nonsocial1.png,stimuli/Nonsocial2.png,stimuli/Social3.png,stimuli/Social4.png,stimuli/Nonsocial3.png,stimuli/Nonsocial4.png,"(-0.7, 0.5)",cs_neg_ns_new,"(0.7, 0.5)",cs_neg_ns_new,0,0,0,0,,,,,0,69,69,93,,1709.7906160999846,l,0.5431953000079375,correct,,41,A,2024-05-17_14h12.59.508,gca_discrimination2,2022.2.4,144.00340997306813,
positions.xlsx,stimuli.xlsx,test.xlsx,stimuli/Test1.png,stimuli/Test2.png,stimuli/Social1.png,stimuli/Social2.png,stimuli/Nonsocial1.png,stimuli/Nonsocial2.png,stimuli/Social3.png,stimuli/Social4.png,stimuli/Nonsocial3.png,stimuli/Nonsocial4.png,"(0.7, -0.5)",cs_pos_ns,"(-0.7, 0.5)",cs_pos_ns,0,0,0,0,,,,,0,70,70,72,,1712.4502401000063,l,0.5713007999875117,correct,,41,A,2024-05-17_14h12.59.508,gca_discrimination2,2022.2.4,144.00340997306813,
positions.xlsx,stimuli.xlsx,test.xlsx,stimuli/Test1.png,stimuli/Test2.png,stimuli/Social1.png,stimuli/Social2.png,stimuli/Nonsocial1.png,stimuli/Nonsocial2.png,stimuli/Social3.png,stimuli/Social4.png,stimuli/Nonsocial3.png,stimuli/Nonsocial4.png,"(-0.7, -0.5)",cs_neg_ns,"(0.7, 0.5)",cs_neg_ns,0,0,0,0,,,,,0,71,71,87,,1715.4709598000045,l,0.3740442999987863,correct,,41,A,2024-05-17_14h12.59.508,gca_discrimination2,2022.2.4,144.00340997306813,
positions.xlsx,stimuli.xlsx,test.xlsx,stimuli/Test1.png,stimuli/Test2.png,stimuli/Social1.png,stimuli/Social2.png,stimuli/Nonsocial1.png,stimuli/Nonsocial2.png,stimuli/Social3.png,stimuli/Social4.png,stimuli/Nonsocial3.png,stimuli/Nonsocial4.png,"(-0.7, -0.5)",cs_neg_s,"(0.7, 0.5)",cs_pos_s,0,0,0,0,,,,,0,72,72,20,,1717.9570062999846,ä,0.42322060000151396,correct,,41,A,2024-05-17_14h12.59.508,gca_discrimination2,2022.2.4,144.00340997306813,
positions.xlsx,stimuli.xlsx,test.xlsx,stimuli/Test1.png,stimuli/Test2.png,stimuli/Social1.png,stimuli/Social2.png,stimuli/Nonsocial1.png,stimuli/Nonsocial2.png,stimuli/Social3.png,stimuli/Social4.png,stimuli/Nonsocial3.png,stimuli/Nonsocial4.png,"(0.7, 0.5)",cs_neg_ns_new,"(0.7, -0.5)",cs_pos_ns_new,0,0,0,0,,,,,0,73,73,47,,1720.3388508000062,ä,0.834596699976828,correct,,41,A,2024-05-17_14h12.59.508,gca_discrimination2,2022.2.4,144.00340997306813,
positions.xlsx,stimuli.xlsx,test.xlsx,stimuli/Test1.png,stimuli/Test2.png,stimuli/Social1.png,stimuli/Social2.png,stimuli/Nonsocial1.png,stimuli/Nonsocial2.png,stimuli/Social3.png,stimuli/Social4.png,stimuli/Nonsocial3.png,stimuli/Nonsocial4.png,"(0.7, 0.5)",cs_neg_s_new,"(-0.7, -0.5)",cs_pos_s_new,0,0,0,0,,,,,0,74,74,22,,1723.6859238999896,ä,0.5913645999971777,correct,,41,A,2024-05-17_14h12.59.508,gca_discrimination2,2022.2.4,144.00340997306813,
positions.xlsx,stimuli.xlsx,test.xlsx,stimuli/Test1.png,stimuli/Test2.png,stimuli/Social1.png,stimuli/Social2.png,stimuli/Nonsocial1.png,stimuli/Nonsocial2.png,stimuli/Social3.png,stimuli/Social4.png,stimuli/Nonsocial3.png,stimuli/Nonsocial4.png,"(0.7, 0.5)",cs_neg_s_new,"(-0.7, -0.5)",cs_neg_s_new,0,0,0,0,,,,,0,75,75,61,,1726.7622197000019,l,0.9059350999887101,correct,,41,A,2024-05-17_14h12.59.508,gca_discrimination2,2022.2.4,144.00340997306813,
positions.xlsx,stimuli.xlsx,test.xlsx,stimuli/Test1.png,stimuli/Test2.png,stimuli/Social1.png,stimuli/Social2.png,stimuli/Nonsocial1.png,stimuli/Nonsocial2.png,stimuli/Social3.png,stimuli/Social4.png,stimuli/Nonsocial3.png,stimuli/Nonsocial4.png,"(-0.7, 0.5)",cs_neg_ns_new,"(-0.7, -0.5)",cs_neg_ns,0,0,0,0,,,,,0,76,76,39,,1729.6162226999877,ä,0.9969283000100404,correct,,41,A,2024-05-17_14h12.59.508,gca_discrimination2,2022.2.4,144.00340997306813,
positions.xlsx,stimuli.xlsx,test.xlsx,stimuli/Test1.png,stimuli/Test2.png,stimuli/Social1.png,stimuli/Social2.png,stimuli/Nonsocial1.png,stimuli/Nonsocial2.png,stimuli/Social3.png,stimuli/Social4.png,stimuli/Nonsocial3.png,stimuli/Nonsocial4.png,"(0.7, 0.5)",cs_neg_s,"(0.7, -0.5)",cs_neg_s,0,0,0,0,,,,,0,77,77,50,,1733.345253699983,l,1.6912284999853,correct,,41,A,2024-05-17_14h12.59.508,gca_discrimination2,2022.2.4,144.00340997306813,
positions.xlsx,stimuli.xlsx,test.xlsx,stimuli/Test1.png,stimuli/Test2.png,stimuli/Social1.png,stimuli/Social2.png,stimuli/Nonsocial1.png,stimuli/Nonsocial2.png,stimuli/Social3.png,stimuli/Social4.png,stimuli/Nonsocial3.png,stimuli/Nonsocial4.png,"(0.7, 0.5)",cs_neg_ns_new,"(-0.7, -0.5)",cs_neg_ns,0,0,0,0,,,,,0,78,78,24,,1737.1853864000004,l,0.8595694999967236,wrong,,41,A,2024-05-17_14h12.59.508,gca_discrimination2,2022.2.4,144.00340997306813,
positions.xlsx,stimuli.xlsx,test.xlsx,stimuli/Test1.png,stimuli/Test2.png,stimuli/Social1.png,stimuli/Social2.png,stimuli/Nonsocial1.png,stimuli/Nonsocial2.png,stimuli/Social3.png,stimuli/Social4.png,stimuli/Nonsocial3.png,stimuli/Nonsocial4.png,"(0.7, 0.5)",cs_neg_ns,"(0.7, -0.5)",cs_pos_ns_new,0,0,0,0,,,,,0,79,79,41,,1740.2060839000042,ä,0.5751314999943133,correct,,41,A,2024-05-17_14h12.59.508,gca_discrimination2,2022.2.4,144.00340997306813,
positions.xlsx,stimuli.xlsx,test.xlsx,stimuli/Test1.png,stimuli/Test2.png,stimuli/Social1.png,stimuli/Social2.png,stimuli/Nonsocial1.png,stimuli/Nonsocial2.png,stimuli/Social3.png,stimuli/Social4.png,stimuli/Nonsocial3.png,stimuli/Nonsocial4.png,"(-0.7, 0.5)",cs_pos_s,"(0.7, -0.5)",cs_pos_s,0,0,0,0,,,,,0,80,80,65,,1743.032361599995,l,0.42062600000645034,correct,,41,A,2024-05-17_14h12.59.508,gca_discrimination2,2022.2.4,144.00340997306813,
positions.xlsx,stimuli.xlsx,test.xlsx,stimuli/Test1.png,stimuli/Test2.png,stimuli/Social1.png,stimuli/Social2.png,stimuli/Nonsocial1.png,stimuli/Nonsocial2.png,stimuli/Social3.png,stimuli/Social4.png,stimuli/Nonsocial3.png,stimuli/Nonsocial4.png,"(0.7, 0.5)",cs_neg_s_new,"(0.7, -0.5)",cs_neg_s_new,0,0,0,0,,,,,0,81,81,68,,1746.0252927999827,l,0.49889089999487624,correct,,41,A,2024-05-17_14h12.59.508,gca_discrimination2,2022.2.4,144.00340997306813,
positions.xlsx,stimuli.xlsx,test.xlsx,stimuli/Test1.png,stimuli/Test2.png,stimuli/Social1.png,stimuli/Social2.png,stimuli/Nonsocial1.png,stimuli/Nonsocial2.png,stimuli/Social3.png,stimuli/Social4.png,stimuli/Nonsocial3.png,stimuli/Nonsocial4.png,"(0.7, -0.5)",cs_neg_s,"(-0.7, 0.5)",cs_neg_s,0,0,0,0,,,,,0,82,82,69,,1748.5321440999978,ä,1.2002537999942433,wrong,,41,A,2024-05-17_14h12.59.508,gca_discrimination2,2022.2.4,144.00340997306813,
positions.xlsx,stimuli.xlsx,test.xlsx,stimuli/Test1.png,stimuli/Test2.png,stimuli/Social1.png,stimuli/Social2.png,stimuli/Nonsocial1.png,stimuli/Nonsocial2.png,stimuli/Social3.png,stimuli/Social4.png,stimuli/Nonsocial3.png,stimuli/Nonsocial4.png,"(-0.7, 0.5)",cs_neg_s_new,"(-0.7, -0.5)",cs_pos_s_new,0,0,0,0,,,,,0,83,83,15,,1751.9764320999966,ä,0.5959020000009332,correct,,41,A,2024-05-17_14h12.59.508,gca_discrimination2,2022.2.4,144.00340997306813,
positions.xlsx,stimuli.xlsx,test.xlsx,stimuli/Test1.png,stimuli/Test2.png,stimuli/Social1.png,stimuli/Social2.png,stimuli/Nonsocial1.png,stimuli/Nonsocial2.png,stimuli/Social3.png,stimuli/Social4.png,stimuli/Nonsocial3.png,stimuli/Nonsocial4.png,"(-0.7, -0.5)",cs_pos_s,"(-0.7, 0.5)",cs_neg_s,0,0,0,0,,,,,0,84,84,17,,1755.2888305000088,ä,0.5883219999959692,correct,,41,A,2024-05-17_14h12.59.508,gca_discrimination2,2022.2.4,144.00340997306813,
positions.xlsx,stimuli.xlsx,test.xlsx,stimuli/Test1.png,stimuli/Test2.png,stimuli/Social1.png,stimuli/Social2.png,stimuli/Nonsocial1.png,stimuli/Nonsocial2.png,stimuli/Social3.png,stimuli/Social4.png,stimuli/Nonsocial3.png,stimuli/Nonsocial4.png,"(0.7, 0.5)",cs_neg_s,"(-0.7, 0.5)",cs_neg_s,0,0,0,0,,,,,0,85,85,62,,1758.483118300006,l,1.1296241999953054,correct,,41,A,2024-05-17_14h12.59.508,gca_discrimination2,2022.2.4,144.00340997306813,
positions.xlsx,stimuli.xlsx,test.xlsx,stimuli/Test1.png,stimuli/Test2.png,stimuli/Social1.png,stimuli/Social2.png,stimuli/Nonsocial1.png,stimuli/Nonsocial2.png,stimuli/Social3.png,stimuli/Social4.png,stimuli/Nonsocial3.png,stimuli/Nonsocial4.png,"(0.7, -0.5)",cs_pos_ns,"(0.7, 0.5)",cs_pos_ns_new,0,0,0,0,,,,,0,86,86,44,,1761.8996466999815,ä,0.657443299976876,correct,,41,A,2024-05-17_14h12.59.508,gca_discrimination2,2022.2.4,144.00340997306813,
positions.xlsx,stimuli.xlsx,test.xlsx,stimuli/Test1.png,stimuli/Test2.png,stimuli/Social1.png,stimuli/Social2.png,stimuli/Nonsocial1.png,stimuli/Nonsocial2.png,stimuli/Social3.png,stimuli/Social4.png,stimuli/Nonsocial3.png,stimuli/Nonsocial4.png,"(0.7, -0.5)",cs_pos_ns_new,"(0.7, 0.5)",cs_pos_ns_new,0,0,0,0,,,,,0,87,87,74,,1765.3092291000066,ä,0.5916856999974698,wrong,,41,A,2024-05-17_14h12.59.508,gca_discrimination2,2022.2.4,144.00340997306813,
positions.xlsx,stimuli.xlsx,test.xlsx,stimuli/Test1.png,stimuli/Test2.png,stimuli/Social1.png,stimuli/Social2.png,stimuli/Nonsocial1.png,stimuli/Nonsocial2.png,stimuli/Social3.png,stimuli/Social4.png,stimuli/Nonsocial3.png,stimuli/Nonsocial4.png,"(0.7, 0.5)",cs_pos_ns_new,"(-0.7, -0.5)",cs_neg_ns_new,0,0,0,0,,,,,0,88,88,29,,1768.4618839999894,ä,0.6961117000028025,correct,,41,A,2024-05-17_14h12.59.508,gca_discrimination2,2022.2.4,144.00340997306813,
positions.xlsx,stimuli.xlsx,test.xlsx,stimuli/Test1.png,stimuli/Test2.png,stimuli/Social1.png,stimuli/Social2.png,stimuli/Nonsocial1.png,stimuli/Nonsocial2.png,stimuli/Social3.png,stimuli/Social4.png,stimuli/Nonsocial3.png,stimuli/Nonsocial4.png,"(-0.7, 0.5)",cs_pos_ns,"(0.7, -0.5)",cs_pos_ns,0,0,0,0,,,,,0,89,89,81,,1771.2881765000056,l,0.34108489999198355,correct,,41,A,2024-05-17_14h12.59.508,gca_discrimination2,2022.2.4,144.00340997306813,
positions.xlsx,stimuli.xlsx,test.xlsx,stimuli/Test1.png,stimuli/Test2.png,stimuli/Social1.png,stimuli/Social2.png,stimuli/Nonsocial1.png,stimuli/Nonsocial2.png,stimuli/Social3.png,stimuli/Social4.png,stimuli/Nonsocial3.png,stimuli/Nonsocial4.png,"(0.7, 0.5)",cs_pos_s,"(-0.7, 0.5)",cs_neg_s,0,0,0,0,,,,,0,90,90,8,,1773.982443899993,ä,0.5108130000007804,correct,,41,A,2024-05-17_14h12.59.508,gca_discrimination2,2022.2.4,144.00340997306813,
positions.xlsx,stimuli.xlsx,test.xlsx,stimuli/Test1.png,stimuli/Test2.png,stimuli/Social1.png,stimuli/Social2.png,stimuli/Nonsocial1.png,stimuli/Nonsocial2.png,stimuli/Social3.png,stimuli/Social4.png,stimuli/Nonsocial3.png,stimuli/Nonsocial4.png,"(0.7, -0.5)",cs_pos_s_new,"(-0.7, -0.5)",cs_pos_s_new,0,0,0,0,,,,,0,91,91,60,,1777.246262200002,l,0.6302658999920823,correct,,41,A,2024-05-17_14h12.59.508,gca_discrimination2,2022.2.4,144.00340997306813,
positions.xlsx,stimuli.xlsx,test.xlsx,stimuli/Test1.png,stimuli/Test2.png,stimuli/Social1.png,stimuli/Social2.png,stimuli/Nonsocial1.png,stimuli/Nonsocial2.png,stimuli/Social3.png,stimuli/Social4.png,stimuli/Nonsocial3.png,stimuli/Nonsocial4.png,"(-0.7, 0.5)",cs_neg_ns_new,"(-0.7, -0.5)",cs_neg_ns_new,0,0,0,0,,,,,0,92,92,79,,1780.4127811999933,ä,1.0962329000176396,wrong,,41,A,2024-05-17_14h12.59.508,gca_discrimination2,2022.2.4,144.00340997306813,
positions.xlsx,stimuli.xlsx,test.xlsx,stimuli/Test1.png,stimuli/Test2.png,stimuli/Social1.png,stimuli/Social2.png,stimuli/Nonsocial1.png,stimuli/Nonsocial2.png,stimuli/Social3.png,stimuli/Social4.png,stimuli/Nonsocial3.png,stimuli/Nonsocial4.png,"(-0.7, -0.5)",cs_pos_s,"(-0.7, 0.5)",cs_pos_s_new,0,0,0,0,,,,,0,93,93,19,,1784.100134200009,ä,0.48105209998902865,correct,,41,A,2024-05-17_14h12.59.508,gca_discrimination2,2022.2.4,144.00340997306813,
positions.xlsx,stimuli.xlsx,test.xlsx,stimuli/Test1.png,stimuli/Test2.png,stimuli/Social1.png,stimuli/Social2.png,stimuli/Nonsocial1.png,stimuli/Nonsocial2.png,stimuli/Social3.png,stimuli/Social4.png,stimuli/Nonsocial3.png,stimuli/Nonsocial4.png,"(0.7, 0.5)",cs_neg_ns,"(0.7, -0.5)",cs_pos_ns,0,0,0,0,,,,,0,94,94,40,,1786.8430895000056,l,0.6490985999989789,wrong,,41,A,2024-05-17_14h12.59.508,gca_discrimination2,2022.2.4,144.00340997306813,
positions.xlsx,stimuli.xlsx,test.xlsx,stimuli/Test1.png,stimuli/Test2.png,stimuli/Social1.png,stimuli/Social2.png,stimuli/Nonsocial1.png,stimuli/Nonsocial2.png,stimuli/Social3.png,stimuli/Social4.png,stimuli/Nonsocial3.png,stimuli/Nonsocial4.png,"(-0.7, 0.5)",cs_pos_s_new,"(0.7, 0.5)",cs_pos_s,0,0,0,0,,,,,0,95,95,7,,1789.3569024000026,ä,0.7513061999925412,correct,,41,A,2024-05-17_14h12.59.508,gca_discrimination2,2022.2.4,144.00340997306813,
