posFile,stimFile,testFile,test1,test2,cs_neg_s,cs_pos_s,cs_neg_ns,cs_pos_ns,cs_neg_s_new,cs_pos_s_new,cs_neg_ns_new,cs_pos_ns_new,position1,stim1,position2,stim2,blocks.thisRepN,blocks.thisTrialN,blocks.thisN,blocks.thisIndex,learning_trials.thisRepN,learning_trials.thisTrialN,learning_trials.thisN,learning_trials.thisIndex,trials.thisRepN,trials.thisTrialN,trials.thisN,trials.thisIndex,textStart.started,key.started,key.keys,correctness,key.rt,textStartTask.started,participant,group,date,expName,psychopyVersion,frameRate,
positions.xlsx,stimuli.xlsx,test.xlsx,stimuli/Test1.png,stimuli/Test2.png,stimuli/Social4.png,stimuli/Social3.png,stimuli/Nonsocial4.png,stimuli/Nonsocial3.png,stimuli/Social2.png,stimuli/Social1.png,stimuli/Nonsocial2.png,stimuli/Nonsocial1.png,"(0.7, -0.5)",test2,"(-0.7, 0.5)",test1,0,0,0,0,0,0,0,9,,,,,369.86183280000114,412.19342929997947,None,no answer,,,40,D,2024-05-17_13h11.03.121,gca_discrimination2,2022.2.4,144.07166701904114,
positions.xlsx,stimuli.xlsx,test.xlsx,stimuli/Test1.png,stimuli/Test2.png,stimuli/Social4.png,stimuli/Social3.png,stimuli/Nonsocial4.png,stimuli/Nonsocial3.png,stimuli/Social2.png,stimuli/Social1.png,stimuli/Nonsocial2.png,stimuli/Nonsocial1.png,"(-0.7, -0.5)",test1,"(-0.7, 0.5)",test1,0,0,0,0,0,1,1,8,,,,,,418.24870959998225,l,wrong,0.2735081000428181,,40,D,2024-05-17_13h11.03.121,gca_discrimination2,2022.2.4,144.07166701904114,
positions.xlsx,stimuli.xlsx,test.xlsx,stimuli/Test1.png,stimuli/Test2.png,stimuli/Social4.png,stimuli/Social3.png,stimuli/Nonsocial4.png,stimuli/Nonsocial3.png,stimuli/Social2.png,stimuli/Social1.png,stimuli/Nonsocial2.png,stimuli/Nonsocial1.png,"(0.7, 0.5)",test2,"(0.7, -0.5)",test2,0,0,0,0,0,2,2,0,,,,,,422.60271269999794,l,wrong,0.5583296000258997,,40,D,2024-05-17_13h11.03.121,gca_discrimination2,2022.2.4,144.07166701904114,
positions.xlsx,stimuli.xlsx,test.xlsx,stimuli/Test1.png,stimuli/Test2.png,stimuli/Social4.png,stimuli/Social3.png,stimuli/Nonsocial4.png,stimuli/Nonsocial3.png,stimuli/Social2.png,stimuli/Social1.png,stimuli/Nonsocial2.png,stimuli/Nonsocial1.png,"(0.7, -0.5)",test1,"(-0.7, -0.5)",test1,0,0,0,0,0,3,3,3,,,,,,427.0330866999866,l,wrong,0.5202103000192437,,40,D,2024-05-17_13h11.03.121,gca_discrimination2,2022.2.4,144.07166701904114,
positions.xlsx,stimuli.xlsx,test.xlsx,stimuli/Test1.png,stimuli/Test2.png,stimuli/Social4.png,stimuli/Social3.png,stimuli/Nonsocial4.png,stimuli/Nonsocial3.png,stimuli/Social2.png,stimuli/Social1.png,stimuli/Nonsocial2.png,stimuli/Nonsocial1.png,"(0.7, -0.5)",test1,"(0.7, 0.5)",test1,0,0,0,0,0,4,4,7,,,,,,431.9148334999918,ä,correct,0.423062400019262,,40,D,2024-05-17_13h11.03.121,gca_discrimination2,2022.2.4,144.07166701904114,
positions.xlsx,stimuli.xlsx,test.xlsx,stimuli/Test1.png,stimuli/Test2.png,stimuli/Social4.png,stimuli/Social3.png,stimuli/Nonsocial4.png,stimuli/Nonsocial3.png,stimuli/Social2.png,stimuli/Social1.png,stimuli/Nonsocial2.png,stimuli/Nonsocial1.png,"(-0.7, 0.5)",test1,"(0.7, -0.5)",test2,0,0,0,0,0,5,5,2,,,,,,436.42159029998584,l,correct,0.34050940003362484,,40,D,2024-05-17_13h11.03.121,gca_discrimination2,2022.2.4,144.07166701904114,
positions.xlsx,stimuli.xlsx,test.xlsx,stimuli/Test1.png,stimuli/Test2.png,stimuli/Social4.png,stimuli/Social3.png,stimuli/Nonsocial4.png,stimuli/Nonsocial3.png,stimuli/Social2.png,stimuli/Social1.png,stimuli/Nonsocial2.png,stimuli/Nonsocial1.png,"(-0.7, -0.5)",test2,"(0.7, 0.5)",test2,0,0,0,0,0,6,6,5,,,,,,440.9839250999794,ä,correct,0.3375484000425786,,40,D,2024-05-17_13h11.03.121,gca_discrimination2,2022.2.4,144.07166701904114,
positions.xlsx,stimuli.xlsx,test.xlsx,stimuli/Test1.png,stimuli/Test2.png,stimuli/Social4.png,stimuli/Social3.png,stimuli/Nonsocial4.png,stimuli/Nonsocial3.png,stimuli/Social2.png,stimuli/Social1.png,stimuli/Nonsocial2.png,stimuli/Nonsocial1.png,"(0.7, -0.5)",test2,"(0.7, 0.5)",test1,0,0,0,0,0,7,7,6,,,,,,446.09481789998244,ä,wrong,0.3786277000326663,,40,D,2024-05-17_13h11.03.121,gca_discrimination2,2022.2.4,144.07166701904114,
positions.xlsx,stimuli.xlsx,test.xlsx,stimuli/Test1.png,stimuli/Test2.png,stimuli/Social4.png,stimuli/Social3.png,stimuli/Nonsocial4.png,stimuli/Nonsocial3.png,stimuli/Social2.png,stimuli/Social1.png,stimuli/Nonsocial2.png,stimuli/Nonsocial1.png,"(-0.7, 0.5)",test2,"(0.7, -0.5)",test1,0,0,0,0,0,8,8,4,,,,,,450.6710271999764,l,correct,0.36272780000581406,,40,D,2024-05-17_13h11.03.121,gca_discrimination2,2022.2.4,144.07166701904114,
positions.xlsx,stimuli.xlsx,test.xlsx,stimuli/Test1.png,stimuli/Test2.png,stimuli/Social4.png,stimuli/Social3.png,stimuli/Nonsocial4.png,stimuli/Nonsocial3.png,stimuli/Social2.png,stimuli/Social1.png,stimuli/Nonsocial2.png,stimuli/Nonsocial1.png,"(0.7, 0.5)",test2,"(0.7, -0.5)",test2,0,0,0,0,0,9,9,1,,,,,,454.85137140000006,l,wrong,0.4061398000048939,,40,D,2024-05-17_13h11.03.121,gca_discrimination2,2022.2.4,144.07166701904114,
positions.xlsx,stimuli.xlsx,test.xlsx,stimuli/Test1.png,stimuli/Test2.png,stimuli/Social4.png,stimuli/Social3.png,stimuli/Nonsocial4.png,stimuli/Nonsocial3.png,stimuli/Social2.png,stimuli/Social1.png,stimuli/Nonsocial2.png,stimuli/Nonsocial1.png,"(0.7, -0.5)",cs_pos_s_new,"(0.7, 0.5)",cs_pos_s,0,0,0,0,,,,,0,0,0,20,,478.2740811999829,l,correct,0.4236565000319388,457.6013169999933,40,D,2024-05-17_13h11.03.121,gca_discrimination2,2022.2.4,144.07166701904114,
positions.xlsx,stimuli.xlsx,test.xlsx,stimuli/Test1.png,stimuli/Test2.png,stimuli/Social4.png,stimuli/Social3.png,stimuli/Nonsocial4.png,stimuli/Nonsocial3.png,stimuli/Social2.png,stimuli/Social1.png,stimuli/Nonsocial2.png,stimuli/Nonsocial1.png,"(0.7, 0.5)",cs_neg_s_new,"(0.7, -0.5)",cs_neg_s_new,0,0,0,0,,,,,0,1,1,59,,480.56567289997474,l,wrong,0.3486414000217337,,40,D,2024-05-17_13h11.03.121,gca_discrimination2,2022.2.4,144.07166701904114,
positions.xlsx,stimuli.xlsx,test.xlsx,stimuli/Test1.png,stimuli/Test2.png,stimuli/Social4.png,stimuli/Social3.png,stimuli/Nonsocial4.png,stimuli/Nonsocial3.png,stimuli/Social2.png,stimuli/Social1.png,stimuli/Nonsocial2.png,stimuli/Nonsocial1.png,"(-0.7, -0.5)",cs_neg_s,"(0.7, 0.5)",cs_pos_s,0,0,0,0,,,,,0,2,2,15,,483.5447096999851,ä,wrong,0.48034490004647523,,40,D,2024-05-17_13h11.03.121,gca_discrimination2,2022.2.4,144.07166701904114,
positions.xlsx,stimuli.xlsx,test.xlsx,stimuli/Test1.png,stimuli/Test2.png,stimuli/Social4.png,stimuli/Social3.png,stimuli/Nonsocial4.png,stimuli/Nonsocial3.png,stimuli/Social2.png,stimuli/Social1.png,stimuli/Nonsocial2.png,stimuli/Nonsocial1.png,"(-0.7, -0.5)",cs_neg_ns_new,"(0.7, 0.5)",cs_pos_ns,0,0,0,0,,,,,0,3,3,41,,486.17655599999125,l,correct,0.3606113000132609,,40,D,2024-05-17_13h11.03.121,gca_discrimination2,2022.2.4,144.07166701904114,
positions.xlsx,stimuli.xlsx,test.xlsx,stimuli/Test1.png,stimuli/Test2.png,stimuli/Social4.png,stimuli/Social3.png,stimuli/Nonsocial4.png,stimuli/Nonsocial3.png,stimuli/Social2.png,stimuli/Social1.png,stimuli/Nonsocial2.png,stimuli/Nonsocial1.png,"(0.7, -0.5)",cs_neg_ns,"(0.7, 0.5)",cs_pos_ns_new,0,0,0,0,,,,,0,4,4,39,,489.24588089997997,ä,wrong,0.33875070002977736,,40,D,2024-05-17_13h11.03.121,gca_discrimination2,2022.2.4,144.07166701904114,
positions.xlsx,stimuli.xlsx,test.xlsx,stimuli/Test1.png,stimuli/Test2.png,stimuli/Social4.png,stimuli/Social3.png,stimuli/Nonsocial4.png,stimuli/Nonsocial3.png,stimuli/Social2.png,stimuli/Social1.png,stimuli/Nonsocial2.png,stimuli/Nonsocial1.png,"(-0.7, -0.5)",cs_neg_s,"(-0.7, 0.5)",cs_pos_s_new,0,0,0,0,,,,,0,5,5,12,,491.5235218999733,l,correct,0.34166950001963414,,40,D,2024-05-17_13h11.03.121,gca_discrimination2,2022.2.4,144.07166701904114,
positions.xlsx,stimuli.xlsx,test.xlsx,stimuli/Test1.png,stimuli/Test2.png,stimuli/Social4.png,stimuli/Social3.png,stimuli/Nonsocial4.png,stimuli/Nonsocial3.png,stimuli/Social2.png,stimuli/Social1.png,stimuli/Nonsocial2.png,stimuli/Nonsocial1.png,"(0.7, 0.5)",cs_pos_ns_new,"(-0.7, -0.5)",cs_neg_ns,0,0,0,0,,,,,0,6,6,35,,493.9609081999806,l,correct,0.36057690004236065,,40,D,2024-05-17_13h11.03.121,gca_discrimination2,2022.2.4,144.07166701904114,
positions.xlsx,stimuli.xlsx,test.xlsx,stimuli/Test1.png,stimuli/Test2.png,stimuli/Social4.png,stimuli/Social3.png,stimuli/Nonsocial4.png,stimuli/Nonsocial3.png,stimuli/Social2.png,stimuli/Social1.png,stimuli/Nonsocial2.png,stimuli/Nonsocial1.png,"(-0.7, -0.5)",cs_pos_ns,"(-0.7, 0.5)",cs_pos_ns,0,0,0,0,,,,,0,7,7,80,,496.6067100999935,ä,correct,0.3549831000273116,,40,D,2024-05-17_13h11.03.121,gca_discrimination2,2022.2.4,144.07166701904114,
positions.xlsx,stimuli.xlsx,test.xlsx,stimuli/Test1.png,stimuli/Test2.png,stimuli/Social4.png,stimuli/Social3.png,stimuli/Nonsocial4.png,stimuli/Nonsocial3.png,stimuli/Social2.png,stimuli/Social1.png,stimuli/Nonsocial2.png,stimuli/Nonsocial1.png,"(-0.7, 0.5)",cs_pos_s_new,"(-0.7, -0.5)",cs_neg_s,0,0,0,0,,,,,0,8,8,7,,499.71764119999716,l,correct,0.6357562000048347,,40,D,2024-05-17_13h11.03.121,gca_discrimination2,2022.2.4,144.07166701904114,
positions.xlsx,stimuli.xlsx,test.xlsx,stimuli/Test1.png,stimuli/Test2.png,stimuli/Social4.png,stimuli/Social3.png,stimuli/Nonsocial4.png,stimuli/Nonsocial3.png,stimuli/Social2.png,stimuli/Social1.png,stimuli/Nonsocial2.png,stimuli/Nonsocial1.png,"(0.7, 0.5)",cs_neg_ns,"(0.7, -0.5)",cs_neg_ns,0,0,0,0,,,,,0,9,9,91,,502.2730943999777,ä,correct,0.4877672000438906,,40,D,2024-05-17_13h11.03.121,gca_discrimination2,2022.2.4,144.07166701904114,
positions.xlsx,stimuli.xlsx,test.xlsx,stimuli/Test1.png,stimuli/Test2.png,stimuli/Social4.png,stimuli/Social3.png,stimuli/Nonsocial4.png,stimuli/Nonsocial3.png,stimuli/Social2.png,stimuli/Social1.png,stimuli/Nonsocial2.png,stimuli/Nonsocial1.png,"(0.7, 0.5)",cs_neg_ns_new,"(0.7, -0.5)",cs_neg_ns_new,0,0,0,0,,,,,0,10,10,90,,505.25215609997394,l,wrong,0.36525250002159737,,40,D,2024-05-17_13h11.03.121,gca_discrimination2,2022.2.4,144.07166701904114,
positions.xlsx,stimuli.xlsx,test.xlsx,stimuli/Test1.png,stimuli/Test2.png,stimuli/Social4.png,stimuli/Social3.png,stimuli/Nonsocial4.png,stimuli/Nonsocial3.png,stimuli/Social2.png,stimuli/Social1.png,stimuli/Nonsocial2.png,stimuli/Nonsocial1.png,"(-0.7, -0.5)",cs_pos_s_new,"(0.7, -0.5)",cs_pos_s_new,0,0,0,0,,,,,0,11,11,62,,507.51600849998067,ä,correct,0.3566992000269238,,40,D,2024-05-17_13h11.03.121,gca_discrimination2,2022.2.4,144.07166701904114,
positions.xlsx,stimuli.xlsx,test.xlsx,stimuli/Test1.png,stimuli/Test2.png,stimuli/Social4.png,stimuli/Social3.png,stimuli/Nonsocial4.png,stimuli/Nonsocial3.png,stimuli/Social2.png,stimuli/Social1.png,stimuli/Nonsocial2.png,stimuli/Nonsocial1.png,"(-0.7, -0.5)",cs_pos_s,"(0.7, 0.5)",cs_neg_s,0,0,0,0,,,,,0,12,12,23,,509.93251109999255,l,correct,0.5163253000355326,,40,D,2024-05-17_13h11.03.121,gca_discrimination2,2022.2.4,144.07166701904114,
positions.xlsx,stimuli.xlsx,test.xlsx,stimuli/Test1.png,stimuli/Test2.png,stimuli/Social4.png,stimuli/Social3.png,stimuli/Nonsocial4.png,stimuli/Nonsocial3.png,stimuli/Social2.png,stimuli/Social1.png,stimuli/Nonsocial2.png,stimuli/Nonsocial1.png,"(0.7, 0.5)",cs_pos_ns,"(-0.7, 0.5)",cs_pos_ns,0,0,0,0,,,,,0,13,13,76,,512.4810274999763,l,wrong,0.4487527000310365,,40,D,2024-05-17_13h11.03.121,gca_discrimination2,2022.2.4,144.07166701904114,
positions.xlsx,stimuli.xlsx,test.xlsx,stimuli/Test1.png,stimuli/Test2.png,stimuli/Social4.png,stimuli/Social3.png,stimuli/Nonsocial4.png,stimuli/Nonsocial3.png,stimuli/Social2.png,stimuli/Social1.png,stimuli/Nonsocial2.png,stimuli/Nonsocial1.png,"(0.7, -0.5)",cs_pos_ns_new,"(-0.7, -0.5)",cs_neg_ns,0,0,0,0,,,,,0,14,14,31,,515.147596899973,l,correct,0.2854697000293527,,40,D,2024-05-17_13h11.03.121,gca_discrimination2,2022.2.4,144.07166701904114,
positions.xlsx,stimuli.xlsx,test.xlsx,stimuli/Test1.png,stimuli/Test2.png,stimuli/Social4.png,stimuli/Social3.png,stimuli/Nonsocial4.png,stimuli/Nonsocial3.png,stimuli/Social2.png,stimuli/Social1.png,stimuli/Nonsocial2.png,stimuli/Nonsocial1.png,"(-0.7, -0.5)",cs_pos_s_new,"(0.7, -0.5)",cs_pos_s,0,0,0,0,,,,,0,15,15,21,,518.1474837999849,ä,wrong,0.18176910001784563,,40,D,2024-05-17_13h11.03.121,gca_discrimination2,2022.2.4,144.07166701904114,
positions.xlsx,stimuli.xlsx,test.xlsx,stimuli/Test1.png,stimuli/Test2.png,stimuli/Social4.png,stimuli/Social3.png,stimuli/Nonsocial4.png,stimuli/Nonsocial3.png,stimuli/Social2.png,stimuli/Social1.png,stimuli/Nonsocial2.png,stimuli/Nonsocial1.png,"(-0.7, 0.5)",cs_neg_ns,"(0.7, -0.5)",cs_neg_ns,0,0,0,0,,,,,0,16,16,95,,520.6682046999922,l,wrong,0.42038120003417134,,40,D,2024-05-17_13h11.03.121,gca_discrimination2,2022.2.4,144.07166701904114,
positions.xlsx,stimuli.xlsx,test.xlsx,stimuli/Test1.png,stimuli/Test2.png,stimuli/Social4.png,stimuli/Social3.png,stimuli/Nonsocial4.png,stimuli/Nonsocial3.png,stimuli/Social2.png,stimuli/Social1.png,stimuli/Nonsocial2.png,stimuli/Nonsocial1.png,"(0.7, 0.5)",cs_pos_ns,"(0.7, -0.5)",cs_pos_ns,0,0,0,0,,,,,0,17,17,86,,523.508364999987,l,wrong,0.49416710002697073,,40,D,2024-05-17_13h11.03.121,gca_discrimination2,2022.2.4,144.07166701904114,
positions.xlsx,stimuli.xlsx,test.xlsx,stimuli/Test1.png,stimuli/Test2.png,stimuli/Social4.png,stimuli/Social3.png,stimuli/Nonsocial4.png,stimuli/Nonsocial3.png,stimuli/Social2.png,stimuli/Social1.png,stimuli/Nonsocial2.png,stimuli/Nonsocial1.png,"(-0.7, 0.5)",cs_neg_ns,"(0.7, -0.5)",cs_neg_ns_new,0,0,0,0,,,,,0,18,18,24,,526.5221250999894,l,correct,0.35046470002271235,,40,D,2024-05-17_13h11.03.121,gca_discrimination2,2022.2.4,144.07166701904114,
positions.xlsx,stimuli.xlsx,test.xlsx,stimuli/Test1.png,stimuli/Test2.png,stimuli/Social4.png,stimuli/Social3.png,stimuli/Nonsocial4.png,stimuli/Nonsocial3.png,stimuli/Social2.png,stimuli/Social1.png,stimuli/Nonsocial2.png,stimuli/Nonsocial1.png,"(0.7, -0.5)",cs_pos_s,"(-0.7, -0.5)",cs_neg_s,0,0,0,0,,,,,0,19,19,11,,528.9595181999903,ä,wrong,0.2895276000199374,,40,D,2024-05-17_13h11.03.121,gca_discrimination2,2022.2.4,144.07166701904114,
positions.xlsx,stimuli.xlsx,test.xlsx,stimuli/Test1.png,stimuli/Test2.png,stimuli/Social4.png,stimuli/Social3.png,stimuli/Nonsocial4.png,stimuli/Nonsocial3.png,stimuli/Social2.png,stimuli/Social1.png,stimuli/Nonsocial2.png,stimuli/Nonsocial1.png,"(0.7, -0.5)",cs_pos_s,"(0.7, 0.5)",cs_pos_s_new,0,0,0,0,,,,,0,20,20,5,,531.0913884999754,ä,wrong,0.49454110002261586,,40,D,2024-05-17_13h11.03.121,gca_discrimination2,2022.2.4,144.07166701904114,
positions.xlsx,stimuli.xlsx,test.xlsx,stimuli/Test1.png,stimuli/Test2.png,stimuli/Social4.png,stimuli/Social3.png,stimuli/Nonsocial4.png,stimuli/Nonsocial3.png,stimuli/Social2.png,stimuli/Social1.png,stimuli/Nonsocial2.png,stimuli/Nonsocial1.png,"(-0.7, 0.5)",cs_neg_s,"(0.7, -0.5)",cs_pos_s,0,0,0,0,,,,,0,21,21,8,,533.8412646999932,ä,wrong,0.5195415000198409,,40,D,2024-05-17_13h11.03.121,gca_discrimination2,2022.2.4,144.07166701904114,
positions.xlsx,stimuli.xlsx,test.xlsx,stimuli/Test1.png,stimuli/Test2.png,stimuli/Social4.png,stimuli/Social3.png,stimuli/Nonsocial4.png,stimuli/Nonsocial3.png,stimuli/Social2.png,stimuli/Social1.png,stimuli/Nonsocial2.png,stimuli/Nonsocial1.png,"(0.7, -0.5)",cs_pos_ns_new,"(-0.7, -0.5)",cs_pos_ns,0,0,0,0,,,,,0,22,22,45,,536.6536524999829,l,correct,0.4758403000305407,,40,D,2024-05-17_13h11.03.121,gca_discrimination2,2022.2.4,144.07166701904114,
positions.xlsx,stimuli.xlsx,test.xlsx,stimuli/Test1.png,stimuli/Test2.png,stimuli/Social4.png,stimuli/Social3.png,stimuli/Nonsocial4.png,stimuli/Nonsocial3.png,stimuli/Social2.png,stimuli/Social1.png,stimuli/Nonsocial2.png,stimuli/Nonsocial1.png,"(-0.7, -0.5)",cs_neg_s,"(0.7, 0.5)",cs_pos_s_new,0,0,0,0,,,,,0,23,23,14,,539.7576938999991,ä,wrong,0.6039336000103503,,40,D,2024-05-17_13h11.03.121,gca_discrimination2,2022.2.4,144.07166701904114,
positions.xlsx,stimuli.xlsx,test.xlsx,stimuli/Test1.png,stimuli/Test2.png,stimuli/Social4.png,stimuli/Social3.png,stimuli/Nonsocial4.png,stimuli/Nonsocial3.png,stimuli/Social2.png,stimuli/Social1.png,stimuli/Nonsocial2.png,stimuli/Nonsocial1.png,"(-0.7, -0.5)",cs_neg_s,"(0.7, 0.5)",cs_neg_s,0,0,0,0,,,,,0,24,24,51,,542.3756586999807,l,wrong,0.5778853000374511,,40,D,2024-05-17_13h11.03.121,gca_discrimination2,2022.2.4,144.07166701904114,
positions.xlsx,stimuli.xlsx,test.xlsx,stimuli/Test1.png,stimuli/Test2.png,stimuli/Social4.png,stimuli/Social3.png,stimuli/Nonsocial4.png,stimuli/Nonsocial3.png,stimuli/Social2.png,stimuli/Social1.png,stimuli/Nonsocial2.png,stimuli/Nonsocial1.png,"(0.7, -0.5)",cs_pos_s,"(-0.7, 0.5)",cs_neg_s_new,0,0,0,0,,,,,0,25,25,22,,545.2991388999799,ä,wrong,0.4462265000329353,,40,D,2024-05-17_13h11.03.121,gca_discrimination2,2022.2.4,144.07166701904114,
positions.xlsx,stimuli.xlsx,test.xlsx,stimuli/Test1.png,stimuli/Test2.png,stimuli/Social4.png,stimuli/Social3.png,stimuli/Nonsocial4.png,stimuli/Nonsocial3.png,stimuli/Social2.png,stimuli/Social1.png,stimuli/Nonsocial2.png,stimuli/Nonsocial1.png,"(0.7, 0.5)",cs_pos_ns,"(-0.7, -0.5)",cs_neg_ns_new,0,0,0,0,,,,,0,26,26,38,,548.1601586999896,l,correct,0.5048880000249483,,40,D,2024-05-17_13h11.03.121,gca_discrimination2,2022.2.4,144.07166701904114,
positions.xlsx,stimuli.xlsx,test.xlsx,stimuli/Test1.png,stimuli/Test2.png,stimuli/Social4.png,stimuli/Social3.png,stimuli/Nonsocial4.png,stimuli/Nonsocial3.png,stimuli/Social2.png,stimuli/Social1.png,stimuli/Nonsocial2.png,stimuli/Nonsocial1.png,"(0.7, -0.5)",cs_pos_s,"(0.7, 0.5)",cs_neg_s,0,0,0,0,,,,,0,27,27,16,,551.4238885999948,ä,wrong,0.385053500009235,,40,D,2024-05-17_13h11.03.121,gca_discrimination2,2022.2.4,144.07166701904114,
positions.xlsx,stimuli.xlsx,test.xlsx,stimuli/Test1.png,stimuli/Test2.png,stimuli/Social4.png,stimuli/Social3.png,stimuli/Nonsocial4.png,stimuli/Nonsocial3.png,stimuli/Social2.png,stimuli/Social1.png,stimuli/Nonsocial2.png,stimuli/Nonsocial1.png,"(-0.7, -0.5)",cs_pos_ns_new,"(0.7, -0.5)",cs_pos_ns_new,0,0,0,0,,,,,0,28,28,81,,553.9793669999926,l,wrong,0.42990860002464615,,40,D,2024-05-17_13h11.03.121,gca_discrimination2,2022.2.4,144.07166701904114,
positions.xlsx,stimuli.xlsx,test.xlsx,stimuli/Test1.png,stimuli/Test2.png,stimuli/Social4.png,stimuli/Social3.png,stimuli/Nonsocial4.png,stimuli/Nonsocial3.png,stimuli/Social2.png,stimuli/Social1.png,stimuli/Nonsocial2.png,stimuli/Nonsocial1.png,"(-0.7, -0.5)",cs_pos_ns_new,"(0.7, -0.5)",cs_pos_ns,0,0,0,0,,,,,0,29,29,29,,556.9445196999877,ä,wrong,0.6968133000191301,,40,D,2024-05-17_13h11.03.121,gca_discrimination2,2022.2.4,144.07166701904114,
positions.xlsx,stimuli.xlsx,test.xlsx,stimuli/Test1.png,stimuli/Test2.png,stimuli/Social4.png,stimuli/Social3.png,stimuli/Nonsocial4.png,stimuli/Nonsocial3.png,stimuli/Social2.png,stimuli/Social1.png,stimuli/Nonsocial2.png,stimuli/Nonsocial1.png,"(0.7, -0.5)",cs_neg_ns_new,"(-0.7, -0.5)",cs_neg_ns_new,0,0,0,0,,,,,0,30,30,87,,559.8819205999898,l,wrong,0.48009510003612377,,40,D,2024-05-17_13h11.03.121,gca_discrimination2,2022.2.4,144.07166701904114,
positions.xlsx,stimuli.xlsx,test.xlsx,stimuli/Test1.png,stimuli/Test2.png,stimuli/Social4.png,stimuli/Social3.png,stimuli/Nonsocial4.png,stimuli/Nonsocial3.png,stimuli/Social2.png,stimuli/Social1.png,stimuli/Nonsocial2.png,stimuli/Nonsocial1.png,"(-0.7, -0.5)",cs_pos_ns_new,"(0.7, 0.5)",cs_pos_ns_new,0,0,0,0,,,,,0,31,31,85,,562.9789776999969,l,wrong,0.4945849000068847,,40,D,2024-05-17_13h11.03.121,gca_discrimination2,2022.2.4,144.07166701904114,
positions.xlsx,stimuli.xlsx,test.xlsx,stimuli/Test1.png,stimuli/Test2.png,stimuli/Social4.png,stimuli/Social3.png,stimuli/Nonsocial4.png,stimuli/Nonsocial3.png,stimuli/Social2.png,stimuli/Social1.png,stimuli/Nonsocial2.png,stimuli/Nonsocial1.png,"(0.7, -0.5)",cs_neg_ns,"(0.7, 0.5)",cs_neg_ns_new,0,0,0,0,,,,,0,32,32,33,,565.7081143999822,l,correct,0.6371830000425689,,40,D,2024-05-17_13h11.03.121,gca_discrimination2,2022.2.4,144.07166701904114,
positions.xlsx,stimuli.xlsx,test.xlsx,stimuli/Test1.png,stimuli/Test2.png,stimuli/Social4.png,stimuli/Social3.png,stimuli/Nonsocial4.png,stimuli/Nonsocial3.png,stimuli/Social2.png,stimuli/Social1.png,stimuli/Nonsocial2.png,stimuli/Nonsocial1.png,"(0.7, 0.5)",cs_neg_s,"(-0.7, 0.5)",cs_neg_s,0,0,0,0,,,,,0,33,33,69,,569.0898489999818,l,wrong,0.5845120000303723,,40,D,2024-05-17_13h11.03.121,gca_discrimination2,2022.2.4,144.07166701904114,
positions.xlsx,stimuli.xlsx,test.xlsx,stimuli/Test1.png,stimuli/Test2.png,stimuli/Social4.png,stimuli/Social3.png,stimuli/Nonsocial4.png,stimuli/Nonsocial3.png,stimuli/Social2.png,stimuli/Social1.png,stimuli/Nonsocial2.png,stimuli/Nonsocial1.png,"(0.7, -0.5)",cs_pos_s_new,"(0.7, 0.5)",cs_neg_s_new,0,0,0,0,,,,,0,34,34,17,,572.2494390999782,ä,wrong,0.31181610003113747,,40,D,2024-05-17_13h11.03.121,gca_discrimination2,2022.2.4,144.07166701904114,
positions.xlsx,stimuli.xlsx,test.xlsx,stimuli/Test1.png,stimuli/Test2.png,stimuli/Social4.png,stimuli/Social3.png,stimuli/Nonsocial4.png,stimuli/Nonsocial3.png,stimuli/Social2.png,stimuli/Social1.png,stimuli/Nonsocial2.png,stimuli/Nonsocial1.png,"(-0.7, 0.5)",cs_pos_ns_new,"(0.7, -0.5)",cs_pos_ns_new,0,0,0,0,,,,,0,35,35,92,,574.7701702999766,l,wrong,0.40684230002807453,,40,D,2024-05-17_13h11.03.121,gca_discrimination2,2022.2.4,144.07166701904114,
positions.xlsx,stimuli.xlsx,test.xlsx,stimuli/Test1.png,stimuli/Test2.png,stimuli/Social4.png,stimuli/Social3.png,stimuli/Nonsocial4.png,stimuli/Nonsocial3.png,stimuli/Social2.png,stimuli/Social1.png,stimuli/Nonsocial2.png,stimuli/Nonsocial1.png,"(-0.7, 0.5)",cs_pos_s_new,"(0.7, 0.5)",cs_pos_s_new,0,0,0,0,,,,,0,36,36,48,,577.0964681999758,ä,correct,0.44836770003894344,,40,D,2024-05-17_13h11.03.121,gca_discrimination2,2022.2.4,144.07166701904114,
positions.xlsx,stimuli.xlsx,test.xlsx,stimuli/Test1.png,stimuli/Test2.png,stimuli/Social4.png,stimuli/Social3.png,stimuli/Nonsocial4.png,stimuli/Nonsocial3.png,stimuli/Social2.png,stimuli/Social1.png,stimuli/Nonsocial2.png,stimuli/Nonsocial1.png,"(0.7, -0.5)",cs_neg_s_new,"(-0.7, 0.5)",cs_neg_s_new,0,0,0,0,,,,,0,37,37,65,,580.1449680999795,l,wrong,0.5277431000431534,,40,D,2024-05-17_13h11.03.121,gca_discrimination2,2022.2.4,144.07166701904114,
positions.xlsx,stimuli.xlsx,test.xlsx,stimuli/Test1.png,stimuli/Test2.png,stimuli/Social4.png,stimuli/Social3.png,stimuli/Nonsocial4.png,stimuli/Nonsocial3.png,stimuli/Social2.png,stimuli/Social1.png,stimuli/Nonsocial2.png,stimuli/Nonsocial1.png,"(0.7, 0.5)",cs_neg_s_new,"(-0.7, -0.5)",cs_neg_s_new,0,0,0,0,,,,,0,38,38,52,,583.0962381999998,ä,correct,0.36149450004450046,,40,D,2024-05-17_13h11.03.121,gca_discrimination2,2022.2.4,144.07166701904114,
positions.xlsx,stimuli.xlsx,test.xlsx,stimuli/Test1.png,stimuli/Test2.png,stimuli/Social4.png,stimuli/Social3.png,stimuli/Nonsocial4.png,stimuli/Nonsocial3.png,stimuli/Social2.png,stimuli/Social1.png,stimuli/Nonsocial2.png,stimuli/Nonsocial1.png,"(-0.7, -0.5)",cs_neg_ns,"(0.7, 0.5)",cs_pos_ns,0,0,0,0,,,,,0,39,39,26,,586.2350038999866,l,correct,0.5265356000163592,,40,D,2024-05-17_13h11.03.121,gca_discrimination2,2022.2.4,144.07166701904114,
positions.xlsx,stimuli.xlsx,test.xlsx,stimuli/Test1.png,stimuli/Test2.png,stimuli/Social4.png,stimuli/Social3.png,stimuli/Nonsocial4.png,stimuli/Nonsocial3.png,stimuli/Social2.png,stimuli/Social1.png,stimuli/Nonsocial2.png,stimuli/Nonsocial1.png,"(0.7, 0.5)",cs_neg_s_new,"(-0.7, 0.5)",cs_neg_s_new,0,0,0,0,,,,,0,40,40,60,,589.1723839999759,ä,correct,0.4693546000053175,,40,D,2024-05-17_13h11.03.121,gca_discrimination2,2022.2.4,144.07166701904114,
positions.xlsx,stimuli.xlsx,test.xlsx,stimuli/Test1.png,stimuli/Test2.png,stimuli/Social4.png,stimuli/Social3.png,stimuli/Nonsocial4.png,stimuli/Nonsocial3.png,stimuli/Social2.png,stimuli/Social1.png,stimuli/Nonsocial2.png,stimuli/Nonsocial1.png,"(-0.7, 0.5)",cs_neg_s_new,"(-0.7, -0.5)",cs_neg_s_new,0,0,0,0,,,,,0,41,41,55,,591.8251005999919,l,wrong,0.5837063000362832,,40,D,2024-05-17_13h11.03.121,gca_discrimination2,2022.2.4,144.07166701904114,
positions.xlsx,stimuli.xlsx,test.xlsx,stimuli/Test1.png,stimuli/Test2.png,stimuli/Social4.png,stimuli/Social3.png,stimuli/Nonsocial4.png,stimuli/Nonsocial3.png,stimuli/Social2.png,stimuli/Social1.png,stimuli/Nonsocial2.png,stimuli/Nonsocial1.png,"(0.7, 0.5)",cs_neg_s,"(0.7, -0.5)",cs_neg_s,0,0,0,0,,,,,0,42,42,68,,594.4499438999919,l,wrong,0.5991130000329576,,40,D,2024-05-17_13h11.03.121,gca_discrimination2,2022.2.4,144.07166701904114,
positions.xlsx,stimuli.xlsx,test.xlsx,stimuli/Test1.png,stimuli/Test2.png,stimuli/Social4.png,stimuli/Social3.png,stimuli/Nonsocial4.png,stimuli/Nonsocial3.png,stimuli/Social2.png,stimuli/Social1.png,stimuli/Nonsocial2.png,stimuli/Nonsocial1.png,"(-0.7, -0.5)",cs_neg_s_new,"(0.7, -0.5)",cs_pos_s_new,0,0,0,0,,,,,0,43,43,4,,596.9151287999994,ä,wrong,0.5905536000209395,,40,D,2024-05-17_13h11.03.121,gca_discrimination2,2022.2.4,144.07166701904114,
positions.xlsx,stimuli.xlsx,test.xlsx,stimuli/Test1.png,stimuli/Test2.png,stimuli/Social4.png,stimuli/Social3.png,stimuli/Nonsocial4.png,stimuli/Nonsocial3.png,stimuli/Social2.png,stimuli/Social1.png,stimuli/Nonsocial2.png,stimuli/Nonsocial1.png,"(-0.7, -0.5)",cs_neg_ns_new,"(-0.7, 0.5)",cs_neg_ns,0,0,0,0,,,,,0,44,44,44,,599.8038871999888,l,correct,0.5570637000200804,,40,D,2024-05-17_13h11.03.121,gca_discrimination2,2022.2.4,144.07166701904114,
positions.xlsx,stimuli.xlsx,test.xlsx,stimuli/Test1.png,stimuli/Test2.png,stimuli/Social4.png,stimuli/Social3.png,stimuli/Nonsocial4.png,stimuli/Nonsocial3.png,stimuli/Social2.png,stimuli/Social1.png,stimuli/Nonsocial2.png,stimuli/Nonsocial1.png,"(-0.7, 0.5)",cs_neg_s,"(0.7, 0.5)",cs_neg_s,0,0,0,0,,,,,0,45,45,64,,602.9843249999976,ä,correct,0.440274100023089,,40,D,2024-05-17_13h11.03.121,gca_discrimination2,2022.2.4,144.07166701904114,
positions.xlsx,stimuli.xlsx,test.xlsx,stimuli/Test1.png,stimuli/Test2.png,stimuli/Social4.png,stimuli/Social3.png,stimuli/Nonsocial4.png,stimuli/Nonsocial3.png,stimuli/Social2.png,stimuli/Social1.png,stimuli/Nonsocial2.png,stimuli/Nonsocial1.png,"(-0.7, 0.5)",cs_pos_s,"(-0.7, -0.5)",cs_pos_s,0,0,0,0,,,,,0,46,46,58,,605.6995021999755,ä,correct,0.6383808000246063,,40,D,2024-05-17_13h11.03.121,gca_discrimination2,2022.2.4,144.07166701904114,
positions.xlsx,stimuli.xlsx,test.xlsx,stimuli/Test1.png,stimuli/Test2.png,stimuli/Social4.png,stimuli/Social3.png,stimuli/Nonsocial4.png,stimuli/Nonsocial3.png,stimuli/Social2.png,stimuli/Social1.png,stimuli/Nonsocial2.png,stimuli/Nonsocial1.png,"(-0.7, -0.5)",cs_pos_ns_new,"(0.7, 0.5)",cs_pos_ns,0,0,0,0,,,,,0,47,47,34,,608.7271353999968,ä,wrong,0.633446100022411,,40,D,2024-05-17_13h11.03.121,gca_discrimination2,2022.2.4,144.07166701904114,
positions.xlsx,stimuli.xlsx,test.xlsx,stimuli/Test1.png,stimuli/Test2.png,stimuli/Social4.png,stimuli/Social3.png,stimuli/Nonsocial4.png,stimuli/Nonsocial3.png,stimuli/Social2.png,stimuli/Social1.png,stimuli/Nonsocial2.png,stimuli/Nonsocial1.png,"(-0.7, -0.5)",cs_neg_ns,"(0.7, -0.5)",cs_neg_ns,0,0,0,0,,,,,0,48,48,89,,611.6228705999965,l,wrong,0.4899599000054877,,40,D,2024-05-17_13h11.03.121,gca_discrimination2,2022.2.4,144.07166701904114,
positions.xlsx,stimuli.xlsx,test.xlsx,stimuli/Test1.png,stimuli/Test2.png,stimuli/Social4.png,stimuli/Social3.png,stimuli/Nonsocial4.png,stimuli/Nonsocial3.png,stimuli/Social2.png,stimuli/Social1.png,stimuli/Nonsocial2.png,stimuli/Nonsocial1.png,"(-0.7, 0.5)",cs_pos_ns_new,"(-0.7, -0.5)",cs_pos_ns_new,0,0,0,0,,,,,0,49,49,77,,614.9213041999901,l,wrong,1.0314152000355534,,40,D,2024-05-17_13h11.03.121,gca_discrimination2,2022.2.4,144.07166701904114,
positions.xlsx,stimuli.xlsx,test.xlsx,stimuli/Test1.png,stimuli/Test2.png,stimuli/Social4.png,stimuli/Social3.png,stimuli/Nonsocial4.png,stimuli/Nonsocial3.png,stimuli/Social2.png,stimuli/Social1.png,stimuli/Nonsocial2.png,stimuli/Nonsocial1.png,"(-0.7, -0.5)",cs_neg_s_new,"(-0.7, 0.5)",cs_neg_s_new,0,0,0,0,,,,,0,50,50,57,,618.0115081999975,ä,correct,0.3969702000322286,,40,D,2024-05-17_13h11.03.121,gca_discrimination2,2022.2.4,144.07166701904114,
positions.xlsx,stimuli.xlsx,test.xlsx,stimuli/Test1.png,stimuli/Test2.png,stimuli/Social4.png,stimuli/Social3.png,stimuli/Nonsocial4.png,stimuli/Nonsocial3.png,stimuli/Social2.png,stimuli/Social1.png,stimuli/Nonsocial2.png,stimuli/Nonsocial1.png,"(-0.7, -0.5)",cs_pos_s,"(0.7, -0.5)",cs_pos_s,0,0,0,0,,,,,0,51,51,53,,620.9280555000005,l,wrong,0.672691300016595,,40,D,2024-05-17_13h11.03.121,gca_discrimination2,2022.2.4,144.07166701904114,
positions.xlsx,stimuli.xlsx,test.xlsx,stimuli/Test1.png,stimuli/Test2.png,stimuli/Social4.png,stimuli/Social3.png,stimuli/Nonsocial4.png,stimuli/Nonsocial3.png,stimuli/Social2.png,stimuli/Social1.png,stimuli/Nonsocial2.png,stimuli/Nonsocial1.png,"(0.7, -0.5)",cs_neg_ns,"(-0.7, -0.5)",cs_neg_ns,0,0,0,0,,,,,0,52,52,75,,624.0598708999751,l,wrong,0.5654091000033077,,40,D,2024-05-17_13h11.03.121,gca_discrimination2,2022.2.4,144.07166701904114,
positions.xlsx,stimuli.xlsx,test.xlsx,stimuli/Test1.png,stimuli/Test2.png,stimuli/Social4.png,stimuli/Social3.png,stimuli/Nonsocial4.png,stimuli/Nonsocial3.png,stimuli/Social2.png,stimuli/Social1.png,stimuli/Nonsocial2.png,stimuli/Nonsocial1.png,"(-0.7, -0.5)",cs_pos_ns,"(-0.7, 0.5)",cs_neg_ns_new,0,0,0,0,,,,,0,53,53,36,,626.4556232999894,ä,wrong,0.5618835000204854,,40,D,2024-05-17_13h11.03.121,gca_discrimination2,2022.2.4,144.07166701904114,
positions.xlsx,stimuli.xlsx,test.xlsx,stimuli/Test1.png,stimuli/Test2.png,stimuli/Social4.png,stimuli/Social3.png,stimuli/Nonsocial4.png,stimuli/Nonsocial3.png,stimuli/Social2.png,stimuli/Social1.png,stimuli/Nonsocial2.png,stimuli/Nonsocial1.png,"(0.7, 0.5)",cs_neg_ns,"(-0.7, -0.5)",cs_neg_ns,0,0,0,0,,,,,0,54,54,94,,629.1221798999759,l,wrong,0.6713722000131384,,40,D,2024-05-17_13h11.03.121,gca_discrimination2,2022.2.4,144.07166701904114,
positions.xlsx,stimuli.xlsx,test.xlsx,stimuli/Test1.png,stimuli/Test2.png,stimuli/Social4.png,stimuli/Social3.png,stimuli/Nonsocial4.png,stimuli/Nonsocial3.png,stimuli/Social2.png,stimuli/Social1.png,stimuli/Nonsocial2.png,stimuli/Nonsocial1.png,"(0.7, 0.5)",cs_neg_ns_new,"(-0.7, 0.5)",cs_pos_ns_new,0,0,0,0,,,,,0,55,55,30,,631.9831560999737,l,correct,0.4736583000048995,,40,D,2024-05-17_13h11.03.121,gca_discrimination2,2022.2.4,144.07166701904114,
positions.xlsx,stimuli.xlsx,test.xlsx,stimuli/Test1.png,stimuli/Test2.png,stimuli/Social4.png,stimuli/Social3.png,stimuli/Nonsocial4.png,stimuli/Nonsocial3.png,stimuli/Social2.png,stimuli/Social1.png,stimuli/Nonsocial2.png,stimuli/Nonsocial1.png,"(-0.7, 0.5)",cs_pos_s,"(0.7, 0.5)",cs_pos_s,0,0,0,0,,,,,0,56,56,71,,635.2608196999936,ä,correct,0.8037677000102121,,40,D,2024-05-17_13h11.03.121,gca_discrimination2,2022.2.4,144.07166701904114,
positions.xlsx,stimuli.xlsx,test.xlsx,stimuli/Test1.png,stimuli/Test2.png,stimuli/Social4.png,stimuli/Social3.png,stimuli/Nonsocial4.png,stimuli/Nonsocial3.png,stimuli/Social2.png,stimuli/Social1.png,stimuli/Nonsocial2.png,stimuli/Nonsocial1.png,"(0.7, 0.5)",cs_pos_s,"(0.7, -0.5)",cs_pos_s,0,0,0,0,,,,,0,57,57,66,,638.7606459999806,l,wrong,0.8729248000308871,,40,D,2024-05-17_13h11.03.121,gca_discrimination2,2022.2.4,144.07166701904114,
positions.xlsx,stimuli.xlsx,test.xlsx,stimuli/Test1.png,stimuli/Test2.png,stimuli/Social4.png,stimuli/Social3.png,stimuli/Nonsocial4.png,stimuli/Nonsocial3.png,stimuli/Social2.png,stimuli/Social1.png,stimuli/Nonsocial2.png,stimuli/Nonsocial1.png,"(0.7, 0.5)",cs_neg_ns_new,"(0.7, -0.5)",cs_neg_ns,0,0,0,0,,,,,0,58,58,46,,642.288286199997,l,correct,0.7043341000098735,,40,D,2024-05-17_13h11.03.121,gca_discrimination2,2022.2.4,144.07166701904114,
positions.xlsx,stimuli.xlsx,test.xlsx,stimuli/Test1.png,stimuli/Test2.png,stimuli/Social4.png,stimuli/Social3.png,stimuli/Nonsocial4.png,stimuli/Nonsocial3.png,stimuli/Social2.png,stimuli/Social1.png,stimuli/Nonsocial2.png,stimuli/Nonsocial1.png,"(0.7, 0.5)",cs_pos_s,"(0.7, -0.5)",cs_neg_s,0,0,0,0,,,,,0,59,59,1,,645.5589803999756,ä,wrong,0.6814821000443771,,40,D,2024-05-17_13h11.03.121,gca_discrimination2,2022.2.4,144.07166701904114,
positions.xlsx,stimuli.xlsx,test.xlsx,stimuli/Test1.png,stimuli/Test2.png,stimuli/Social4.png,stimuli/Social3.png,stimuli/Nonsocial4.png,stimuli/Nonsocial3.png,stimuli/Social2.png,stimuli/Social1.png,stimuli/Nonsocial2.png,stimuli/Nonsocial1.png,"(0.7, -0.5)",cs_neg_ns,"(-0.7, -0.5)",cs_neg_ns_new,0,0,0,0,,,,,0,60,60,27,,648.0936029999866,ä,wrong,0.9805811000405811,,40,D,2024-05-17_13h11.03.121,gca_discrimination2,2022.2.4,144.07166701904114,
positions.xlsx,stimuli.xlsx,test.xlsx,stimuli/Test1.png,stimuli/Test2.png,stimuli/Social4.png,stimuli/Social3.png,stimuli/Nonsocial4.png,stimuli/Nonsocial3.png,stimuli/Social2.png,stimuli/Social1.png,stimuli/Nonsocial2.png,stimuli/Nonsocial1.png,"(0.7, -0.5)",cs_pos_ns_new,"(-0.7, -0.5)",cs_pos_ns_new,0,0,0,0,,,,,0,61,61,84,,650.9685254999786,l,wrong,0.6404669000476133,,40,D,2024-05-17_13h11.03.121,gca_discrimination2,2022.2.4,144.07166701904114,
positions.xlsx,stimuli.xlsx,test.xlsx,stimuli/Test1.png,stimuli/Test2.png,stimuli/Social4.png,stimuli/Social3.png,stimuli/Nonsocial4.png,stimuli/Nonsocial3.png,stimuli/Social2.png,stimuli/Social1.png,stimuli/Nonsocial2.png,stimuli/Nonsocial1.png,"(-0.7, 0.5)",cs_pos_ns_new,"(0.7, 0.5)",cs_pos_ns_new,0,0,0,0,,,,,0,62,62,93,,653.8017230999831,l,wrong,1.0152278000314254,,40,D,2024-05-17_13h11.03.121,gca_discrimination2,2022.2.4,144.07166701904114,
positions.xlsx,stimuli.xlsx,test.xlsx,stimuli/Test1.png,stimuli/Test2.png,stimuli/Social4.png,stimuli/Social3.png,stimuli/Nonsocial4.png,stimuli/Nonsocial3.png,stimuli/Social2.png,stimuli/Social1.png,stimuli/Nonsocial2.png,stimuli/Nonsocial1.png,"(0.7, 0.5)",cs_neg_s,"(-0.7, -0.5)",cs_neg_s,0,0,0,0,,,,,0,63,63,61,,656.7669250999752,l,wrong,0.771411000052467,,40,D,2024-05-17_13h11.03.121,gca_discrimination2,2022.2.4,144.07166701904114,
positions.xlsx,stimuli.xlsx,test.xlsx,stimuli/Test1.png,stimuli/Test2.png,stimuli/Social4.png,stimuli/Social3.png,stimuli/Nonsocial4.png,stimuli/Nonsocial3.png,stimuli/Social2.png,stimuli/Social1.png,stimuli/Nonsocial2.png,stimuli/Nonsocial1.png,"(0.7, 0.5)",cs_pos_ns_new,"(-0.7, 0.5)",cs_pos_ns_new,0,0,0,0,,,,,0,64,64,83,,659.6417550999904,l,wrong,0.5351352000143379,,40,D,2024-05-17_13h11.03.121,gca_discrimination2,2022.2.4,144.07166701904114,
positions.xlsx,stimuli.xlsx,test.xlsx,stimuli/Test1.png,stimuli/Test2.png,stimuli/Social4.png,stimuli/Social3.png,stimuli/Nonsocial4.png,stimuli/Nonsocial3.png,stimuli/Social2.png,stimuli/Social1.png,stimuli/Nonsocial2.png,stimuli/Nonsocial1.png,"(-0.7, -0.5)",cs_pos_s_new,"(0.7, 0.5)",cs_pos_s_new,0,0,0,0,,,,,0,65,65,49,,662.6207952999976,l,wrong,0.5005997000262141,,40,D,2024-05-17_13h11.03.121,gca_discrimination2,2022.2.4,144.07166701904114,
positions.xlsx,stimuli.xlsx,test.xlsx,stimuli/Test1.png,stimuli/Test2.png,stimuli/Social4.png,stimuli/Social3.png,stimuli/Nonsocial4.png,stimuli/Nonsocial3.png,stimuli/Social2.png,stimuli/Social1.png,stimuli/Nonsocial2.png,stimuli/Nonsocial1.png,"(-0.7, 0.5)",cs_neg_s,"(0.7, -0.5)",cs_neg_s,0,0,0,0,,,,,0,66,66,70,,665.2734750999953,ä,correct,0.6476711000141222,,40,D,2024-05-17_13h11.03.121,gca_discrimination2,2022.2.4,144.07166701904114,
positions.xlsx,stimuli.xlsx,test.xlsx,stimuli/Test1.png,stimuli/Test2.png,stimuli/Social4.png,stimuli/Social3.png,stimuli/Nonsocial4.png,stimuli/Nonsocial3.png,stimuli/Social2.png,stimuli/Social1.png,stimuli/Nonsocial2.png,stimuli/Nonsocial1.png,"(-0.7, 0.5)",cs_pos_s_new,"(0.7, -0.5)",cs_neg_s,0,0,0,0,,,,,0,67,67,10,,667.8428477999987,ä,wrong,0.5421618000254966,,40,D,2024-05-17_13h11.03.121,gca_discrimination2,2022.2.4,144.07166701904114,
positions.xlsx,stimuli.xlsx,test.xlsx,stimuli/Test1.png,stimuli/Test2.png,stimuli/Social4.png,stimuli/Social3.png,stimuli/Nonsocial4.png,stimuli/Nonsocial3.png,stimuli/Social2.png,stimuli/Social1.png,stimuli/Nonsocial2.png,stimuli/Nonsocial1.png,"(-0.7, 0.5)",cs_neg_ns_new,"(0.7, 0.5)",cs_neg_ns_new,0,0,0,0,,,,,0,68,68,74,,671.1829451999802,l,wrong,0.42641600003116764,,40,D,2024-05-17_13h11.03.121,gca_discrimination2,2022.2.4,144.07166701904114,
positions.xlsx,stimuli.xlsx,test.xlsx,stimuli/Test1.png,stimuli/Test2.png,stimuli/Social4.png,stimuli/Social3.png,stimuli/Nonsocial4.png,stimuli/Nonsocial3.png,stimuli/Social2.png,stimuli/Social1.png,stimuli/Nonsocial2.png,stimuli/Nonsocial1.png,"(-0.7, 0.5)",cs_pos_s,"(-0.7, -0.5)",cs_neg_s,0,0,0,0,,,,,0,69,69,9,,673.4537216999743,ä,wrong,0.7308357000292744,,40,D,2024-05-17_13h11.03.121,gca_discrimination2,2022.2.4,144.07166701904114,
positions.xlsx,stimuli.xlsx,test.xlsx,stimuli/Test1.png,stimuli/Test2.png,stimuli/Social4.png,stimuli/Social3.png,stimuli/Nonsocial4.png,stimuli/Nonsocial3.png,stimuli/Social2.png,stimuli/Social1.png,stimuli/Nonsocial2.png,stimuli/Nonsocial1.png,"(-0.7, -0.5)",cs_pos_ns_new,"(0.7, 0.5)",cs_neg_ns_new,0,0,0,0,,,,,0,70,70,37,,676.8632894999755,ä,wrong,0.5945038000063505,,40,D,2024-05-17_13h11.03.121,gca_discrimination2,2022.2.4,144.07166701904114,
positions.xlsx,stimuli.xlsx,test.xlsx,stimuli/Test1.png,stimuli/Test2.png,stimuli/Social4.png,stimuli/Social3.png,stimuli/Nonsocial4.png,stimuli/Nonsocial3.png,stimuli/Social2.png,stimuli/Social1.png,stimuli/Nonsocial2.png,stimuli/Nonsocial1.png,"(0.7, -0.5)",cs_neg_ns_new,"(-0.7, 0.5)",cs_neg_ns_new,0,0,0,0,,,,,0,71,71,73,,679.7590022999793,l,wrong,0.5538260000466835,,40,D,2024-05-17_13h11.03.121,gca_discrimination2,2022.2.4,144.07166701904114,
positions.xlsx,stimuli.xlsx,test.xlsx,stimuli/Test1.png,stimuli/Test2.png,stimuli/Social4.png,stimuli/Social3.png,stimuli/Nonsocial4.png,stimuli/Nonsocial3.png,stimuli/Social2.png,stimuli/Social1.png,stimuli/Nonsocial2.png,stimuli/Nonsocial1.png,"(0.7, 0.5)",cs_neg_ns,"(0.7, -0.5)",cs_pos_ns_new,0,0,0,0,,,,,0,72,72,32,,682.522808299982,ä,wrong,1.085656600043876,,40,D,2024-05-17_13h11.03.121,gca_discrimination2,2022.2.4,144.07166701904114,
positions.xlsx,stimuli.xlsx,test.xlsx,stimuli/Test1.png,stimuli/Test2.png,stimuli/Social4.png,stimuli/Social3.png,stimuli/Nonsocial4.png,stimuli/Nonsocial3.png,stimuli/Social2.png,stimuli/Social1.png,stimuli/Nonsocial2.png,stimuli/Nonsocial1.png,"(0.7, 0.5)",cs_pos_s,"(-0.7, 0.5)",cs_pos_s_new,0,0,0,0,,,,,0,73,73,6,,686.1615489999822,ä,wrong,0.800169200025266,,40,D,2024-05-17_13h11.03.121,gca_discrimination2,2022.2.4,144.07166701904114,
positions.xlsx,stimuli.xlsx,test.xlsx,stimuli/Test1.png,stimuli/Test2.png,stimuli/Social4.png,stimuli/Social3.png,stimuli/Nonsocial4.png,stimuli/Nonsocial3.png,stimuli/Social2.png,stimuli/Social1.png,stimuli/Nonsocial2.png,stimuli/Nonsocial1.png,"(-0.7, -0.5)",cs_pos_s,"(0.7, -0.5)",cs_neg_s_new,0,0,0,0,,,,,0,74,74,3,,689.7586176999903,ä,wrong,0.699604100023862,,40,D,2024-05-17_13h11.03.121,gca_discrimination2,2022.2.4,144.07166701904114,
positions.xlsx,stimuli.xlsx,test.xlsx,stimuli/Test1.png,stimuli/Test2.png,stimuli/Social4.png,stimuli/Social3.png,stimuli/Nonsocial4.png,stimuli/Nonsocial3.png,stimuli/Social2.png,stimuli/Social1.png,stimuli/Nonsocial2.png,stimuli/Nonsocial1.png,"(0.7, 0.5)",cs_pos_ns,"(0.7, -0.5)",cs_neg_ns_new,0,0,0,0,,,,,0,75,75,42,,692.4806821999955,ä,wrong,0.8083102000236977,,40,D,2024-05-17_13h11.03.121,gca_discrimination2,2022.2.4,144.07166701904114,
positions.xlsx,stimuli.xlsx,test.xlsx,stimuli/Test1.png,stimuli/Test2.png,stimuli/Social4.png,stimuli/Social3.png,stimuli/Nonsocial4.png,stimuli/Nonsocial3.png,stimuli/Social2.png,stimuli/Social1.png,stimuli/Nonsocial2.png,stimuli/Nonsocial1.png,"(0.7, 0.5)",cs_pos_ns_new,"(0.7, -0.5)",cs_pos_ns_new,0,0,0,0,,,,,0,76,76,78,,695.3069996999984,l,wrong,0.4704335000133142,,40,D,2024-05-17_13h11.03.121,gca_discrimination2,2022.2.4,144.07166701904114,
positions.xlsx,stimuli.xlsx,test.xlsx,stimuli/Test1.png,stimuli/Test2.png,stimuli/Social4.png,stimuli/Social3.png,stimuli/Nonsocial4.png,stimuli/Nonsocial3.png,stimuli/Social2.png,stimuli/Social1.png,stimuli/Nonsocial2.png,stimuli/Nonsocial1.png,"(-0.7, 0.5)",cs_pos_s,"(0.7, -0.5)",cs_pos_s,0,0,0,0,,,,,0,77,77,50,,698.411017299979,ä,correct,0.4458782000292558,,40,D,2024-05-17_13h11.03.121,gca_discrimination2,2022.2.4,144.07166701904114,
positions.xlsx,stimuli.xlsx,test.xlsx,stimuli/Test1.png,stimuli/Test2.png,stimuli/Social4.png,stimuli/Social3.png,stimuli/Nonsocial4.png,stimuli/Nonsocial3.png,stimuli/Social2.png,stimuli/Social1.png,stimuli/Nonsocial2.png,stimuli/Nonsocial1.png,"(-0.7, -0.5)",cs_neg_ns_new,"(0.7, 0.5)",cs_pos_ns_new,0,0,0,0,,,,,0,78,78,25,,700.7025730999885,ä,wrong,0.7540486000070814,,40,D,2024-05-17_13h11.03.121,gca_discrimination2,2022.2.4,144.07166701904114,
positions.xlsx,stimuli.xlsx,test.xlsx,stimuli/Test1.png,stimuli/Test2.png,stimuli/Social4.png,stimuli/Social3.png,stimuli/Nonsocial4.png,stimuli/Nonsocial3.png,stimuli/Social2.png,stimuli/Social1.png,stimuli/Nonsocial2.png,stimuli/Nonsocial1.png,"(0.7, -0.5)",cs_neg_s,"(-0.7, -0.5)",cs_pos_s_new,0,0,0,0,,,,,0,79,79,13,,703.5427683999878,ä,wrong,0.4663439000141807,,40,D,2024-05-17_13h11.03.121,gca_discrimination2,2022.2.4,144.07166701904114,
positions.xlsx,stimuli.xlsx,test.xlsx,stimuli/Test1.png,stimuli/Test2.png,stimuli/Social4.png,stimuli/Social3.png,stimuli/Nonsocial4.png,stimuli/Nonsocial3.png,stimuli/Social2.png,stimuli/Social1.png,stimuli/Nonsocial2.png,stimuli/Nonsocial1.png,"(0.7, 0.5)",cs_pos_ns_new,"(0.7, -0.5)",cs_neg_ns_new,0,0,0,0,,,,,0,80,80,28,,706.4106911999988,l,correct,0.47771950002061203,,40,D,2024-05-17_13h11.03.121,gca_discrimination2,2022.2.4,144.07166701904114,
positions.xlsx,stimuli.xlsx,test.xlsx,stimuli/Test1.png,stimuli/Test2.png,stimuli/Social4.png,stimuli/Social3.png,stimuli/Nonsocial4.png,stimuli/Nonsocial3.png,stimuli/Social2.png,stimuli/Social1.png,stimuli/Nonsocial2.png,stimuli/Nonsocial1.png,"(0.7, 0.5)",cs_pos_s_new,"(0.7, -0.5)",cs_pos_s_new,0,0,0,0,,,,,0,81,81,56,,709.1189161999791,ä,correct,0.49003340004128404,,40,D,2024-05-17_13h11.03.121,gca_discrimination2,2022.2.4,144.07166701904114,
positions.xlsx,stimuli.xlsx,test.xlsx,stimuli/Test1.png,stimuli/Test2.png,stimuli/Social4.png,stimuli/Social3.png,stimuli/Nonsocial4.png,stimuli/Nonsocial3.png,stimuli/Social2.png,stimuli/Social1.png,stimuli/Nonsocial2.png,stimuli/Nonsocial1.png,"(0.7, -0.5)",cs_neg_ns_new,"(-0.7, 0.5)",cs_pos_ns,0,0,0,0,,,,,0,82,82,43,,712.2715949999983,l,correct,0.8487820000154898,,40,D,2024-05-17_13h11.03.121,gca_discrimination2,2022.2.4,144.07166701904114,
positions.xlsx,stimuli.xlsx,test.xlsx,stimuli/Test1.png,stimuli/Test2.png,stimuli/Social4.png,stimuli/Social3.png,stimuli/Nonsocial4.png,stimuli/Nonsocial3.png,stimuli/Social2.png,stimuli/Social1.png,stimuli/Nonsocial2.png,stimuli/Nonsocial1.png,"(0.7, 0.5)",cs_neg_s_new,"(0.7, -0.5)",cs_neg_s,0,0,0,0,,,,,0,83,83,18,,715.8686420999875,ä,wrong,0.44418180003413,,40,D,2024-05-17_13h11.03.121,gca_discrimination2,2022.2.4,144.07166701904114,
positions.xlsx,stimuli.xlsx,test.xlsx,stimuli/Test1.png,stimuli/Test2.png,stimuli/Social4.png,stimuli/Social3.png,stimuli/Nonsocial4.png,stimuli/Nonsocial3.png,stimuli/Social2.png,stimuli/Social1.png,stimuli/Nonsocial2.png,stimuli/Nonsocial1.png,"(0.7, -0.5)",cs_neg_s,"(0.7, 0.5)",cs_pos_s_new,0,0,0,0,,,,,0,84,84,19,,718.3199793999956,ä,wrong,0.5529758000047877,,40,D,2024-05-17_13h11.03.121,gca_discrimination2,2022.2.4,144.07166701904114,
positions.xlsx,stimuli.xlsx,test.xlsx,stimuli/Test1.png,stimuli/Test2.png,stimuli/Social4.png,stimuli/Social3.png,stimuli/Nonsocial4.png,stimuli/Nonsocial3.png,stimuli/Social2.png,stimuli/Social1.png,stimuli/Nonsocial2.png,stimuli/Nonsocial1.png,"(-0.7, -0.5)",cs_pos_ns,"(0.7, -0.5)",cs_neg_ns_new,0,0,0,0,,,,,0,85,85,47,,720.7781913999934,ä,wrong,0.9510862000170164,,40,D,2024-05-17_13h11.03.121,gca_discrimination2,2022.2.4,144.07166701904114,
positions.xlsx,stimuli.xlsx,test.xlsx,stimuli/Test1.png,stimuli/Test2.png,stimuli/Social4.png,stimuli/Social3.png,stimuli/Nonsocial4.png,stimuli/Nonsocial3.png,stimuli/Social2.png,stimuli/Social1.png,stimuli/Nonsocial2.png,stimuli/Nonsocial1.png,"(-0.7, -0.5)",cs_pos_ns,"(-0.7, 0.5)",cs_neg_ns,0,0,0,0,,,,,0,86,86,40,,723.6808266999724,ä,wrong,0.6484171000192873,,40,D,2024-05-17_13h11.03.121,gca_discrimination2,2022.2.4,144.07166701904114,
positions.xlsx,stimuli.xlsx,test.xlsx,stimuli/Test1.png,stimuli/Test2.png,stimuli/Social4.png,stimuli/Social3.png,stimuli/Nonsocial4.png,stimuli/Nonsocial3.png,stimuli/Social2.png,stimuli/Social1.png,stimuli/Nonsocial2.png,stimuli/Nonsocial1.png,"(0.7, 0.5)",cs_neg_s_new,"(-0.7, -0.5)",cs_neg_s,0,0,0,0,,,,,0,87,87,2,,726.4515728999977,ä,wrong,0.5258631000178866,,40,D,2024-05-17_13h11.03.121,gca_discrimination2,2022.2.4,144.07166701904114,
positions.xlsx,stimuli.xlsx,test.xlsx,stimuli/Test1.png,stimuli/Test2.png,stimuli/Social4.png,stimuli/Social3.png,stimuli/Nonsocial4.png,stimuli/Nonsocial3.png,stimuli/Social2.png,stimuli/Social1.png,stimuli/Nonsocial2.png,stimuli/Nonsocial1.png,"(-0.7, 0.5)",cs_neg_s_new,"(0.7, -0.5)",cs_neg_s_new,0,0,0,0,,,,,0,88,88,63,,729.2778248999966,ä,correct,0.5467210000206251,,40,D,2024-05-17_13h11.03.121,gca_discrimination2,2022.2.4,144.07166701904114,
positions.xlsx,stimuli.xlsx,test.xlsx,stimuli/Test1.png,stimuli/Test2.png,stimuli/Social4.png,stimuli/Social3.png,stimuli/Nonsocial4.png,stimuli/Nonsocial3.png,stimuli/Social2.png,stimuli/Social1.png,stimuli/Nonsocial2.png,stimuli/Nonsocial1.png,"(-0.7, -0.5)",cs_pos_s,"(0.7, 0.5)",cs_pos_s,0,0,0,0,,,,,0,89,89,54,,731.6596711999737,l,wrong,0.605125300004147,,40,D,2024-05-17_13h11.03.121,gca_discrimination2,2022.2.4,144.07166701904114,
positions.xlsx,stimuli.xlsx,test.xlsx,stimuli/Test1.png,stimuli/Test2.png,stimuli/Social4.png,stimuli/Social3.png,stimuli/Nonsocial4.png,stimuli/Nonsocial3.png,stimuli/Social2.png,stimuli/Social1.png,stimuli/Nonsocial2.png,stimuli/Nonsocial1.png,"(0.7, 0.5)",cs_neg_ns_new,"(-0.7, 0.5)",cs_neg_ns_new,0,0,0,0,,,,,0,90,90,79,,734.4720716999727,ä,correct,0.5369682000018656,,40,D,2024-05-17_13h11.03.121,gca_discrimination2,2022.2.4,144.07166701904114,
positions.xlsx,stimuli.xlsx,test.xlsx,stimuli/Test1.png,stimuli/Test2.png,stimuli/Social4.png,stimuli/Social3.png,stimuli/Nonsocial4.png,stimuli/Nonsocial3.png,stimuli/Social2.png,stimuli/Social1.png,stimuli/Nonsocial2.png,stimuli/Nonsocial1.png,"(0.7, -0.5)",cs_neg_ns,"(0.7, 0.5)",cs_neg_ns,0,0,0,0,,,,,0,91,91,88,,737.1802800000005,ä,correct,0.7093791000079364,,40,D,2024-05-17_13h11.03.121,gca_discrimination2,2022.2.4,144.07166701904114,
positions.xlsx,stimuli.xlsx,test.xlsx,stimuli/Test1.png,stimuli/Test2.png,stimuli/Social4.png,stimuli/Social3.png,stimuli/Nonsocial4.png,stimuli/Nonsocial3.png,stimuli/Social2.png,stimuli/Social1.png,stimuli/Nonsocial2.png,stimuli/Nonsocial1.png,"(-0.7, -0.5)",cs_neg_s,"(-0.7, 0.5)",cs_neg_s,0,0,0,0,,,,,0,92,92,67,,740.1523754999798,ä,correct,0.8090385000396054,,40,D,2024-05-17_13h11.03.121,gca_discrimination2,2022.2.4,144.07166701904114,
positions.xlsx,stimuli.xlsx,test.xlsx,stimuli/Test1.png,stimuli/Test2.png,stimuli/Social4.png,stimuli/Social3.png,stimuli/Nonsocial4.png,stimuli/Nonsocial3.png,stimuli/Social2.png,stimuli/Social1.png,stimuli/Nonsocial2.png,stimuli/Nonsocial1.png,"(-0.7, -0.5)",cs_neg_ns_new,"(0.7, 0.5)",cs_neg_ns_new,0,0,0,0,,,,,0,93,93,72,,743.5411571000004,l,wrong,0.6355611000326462,,40,D,2024-05-17_13h11.03.121,gca_discrimination2,2022.2.4,144.07166701904114,
positions.xlsx,stimuli.xlsx,test.xlsx,stimuli/Test1.png,stimuli/Test2.png,stimuli/Social4.png,stimuli/Social3.png,stimuli/Nonsocial4.png,stimuli/Nonsocial3.png,stimuli/Social2.png,stimuli/Social1.png,stimuli/Nonsocial2.png,stimuli/Nonsocial1.png,"(-0.7, 0.5)",cs_neg_ns,"(-0.7, -0.5)",cs_neg_ns,0,0,0,0,,,,,0,94,94,82,,746.693806299998,l,wrong,0.5874545000260696,,40,D,2024-05-17_13h11.03.121,gca_discrimination2,2022.2.4,144.07166701904114,
positions.xlsx,stimuli.xlsx,test.xlsx,stimuli/Test1.png,stimuli/Test2.png,stimuli/Social4.png,stimuli/Social3.png,stimuli/Nonsocial4.png,stimuli/Nonsocial3.png,stimuli/Social2.png,stimuli/Social1.png,stimuli/Nonsocial2.png,stimuli/Nonsocial1.png,"(0.7, 0.5)",cs_pos_s_new,"(-0.7, 0.5)",cs_neg_s_new,0,0,0,0,,,,,0,95,95,0,,749.4645435999846,ä,wrong,0.31282000002101995,,40,D,2024-05-17_13h11.03.121,gca_discrimination2,2022.2.4,144.07166701904114,
