posFile,stimFile,testFile,test1,test2,cs_neg_s,cs_pos_s,cs_neg_ns,cs_pos_ns,cs_neg_s_new,cs_pos_s_new,cs_neg_ns_new,cs_pos_ns_new,position1,stim1,position2,stim2,blocks.thisRepN,blocks.thisTrialN,blocks.thisN,blocks.thisIndex,learning_trials.thisRepN,learning_trials.thisTrialN,learning_trials.thisN,learning_trials.thisIndex,trials.thisRepN,trials.thisTrialN,trials.thisN,trials.thisIndex,textStart.started,key.started,key.keys,key.rt,correctness,textStartTask.started,participant,group,date,expName,psychopyVersion,frameRate,
positions.xlsx,stimuli.xlsx,test.xlsx,stimuli/Test1.png,stimuli/Test2.png,stimuli/Social3.png,stimuli/Social4.png,stimuli/Nonsocial3.png,stimuli/Nonsocial4.png,stimuli/Social1.png,stimuli/Social2.png,stimuli/Nonsocial1.png,stimuli/Nonsocial2.png,"(0.7, 0.5)",test1,"(-0.7, -0.5)",test1,0,0,0,0,0,0,0,1,,,,,27.806830900000932,58.805542800000694,l,0.7174188999997568,wrong,,22,C,2024-04-30_14h19.16.082,gca_discrimination2,2022.2.4,144.08661334321903,
positions.xlsx,stimuli.xlsx,test.xlsx,stimuli/Test1.png,stimuli/Test2.png,stimuli/Social3.png,stimuli/Social4.png,stimuli/Nonsocial3.png,stimuli/Nonsocial4.png,stimuli/Social1.png,stimuli/Social2.png,stimuli/Nonsocial1.png,stimuli/Nonsocial2.png,"(-0.7, 0.5)",test1,"(0.7, 0.5)",test1,0,0,0,0,0,1,1,4,,,,,,64.09005109999998,ä,0.33770600000025297,correct,,22,C,2024-04-30_14h19.16.082,gca_discrimination2,2022.2.4,144.08661334321903,
positions.xlsx,stimuli.xlsx,test.xlsx,stimuli/Test1.png,stimuli/Test2.png,stimuli/Social3.png,stimuli/Social4.png,stimuli/Nonsocial3.png,stimuli/Nonsocial4.png,stimuli/Social1.png,stimuli/Social2.png,stimuli/Nonsocial1.png,stimuli/Nonsocial2.png,"(0.7, -0.5)",test1,"(-0.7, 0.5)",test1,0,0,0,0,0,2,2,9,,,,,,69.01345919999949,ä,0.2860097000011592,correct,,22,C,2024-04-30_14h19.16.082,gca_discrimination2,2022.2.4,144.08661334321903,
positions.xlsx,stimuli.xlsx,test.xlsx,stimuli/Test1.png,stimuli/Test2.png,stimuli/Social3.png,stimuli/Social4.png,stimuli/Nonsocial3.png,stimuli/Nonsocial4.png,stimuli/Social1.png,stimuli/Social2.png,stimuli/Nonsocial1.png,stimuli/Nonsocial2.png,"(0.7, -0.5)",test1,"(-0.7, -0.5)",test1,0,0,0,0,0,3,3,8,,,,,,73.29800670000077,ä,0.35271320000174455,correct,,22,C,2024-04-30_14h19.16.082,gca_discrimination2,2022.2.4,144.08661334321903,
positions.xlsx,stimuli.xlsx,test.xlsx,stimuli/Test1.png,stimuli/Test2.png,stimuli/Social3.png,stimuli/Social4.png,stimuli/Nonsocial3.png,stimuli/Nonsocial4.png,stimuli/Social1.png,stimuli/Social2.png,stimuli/Nonsocial1.png,stimuli/Nonsocial2.png,"(0.7, 0.5)",test2,"(-0.7, 0.5)",test1,0,0,0,0,0,4,4,7,,,,,,78.1728105000002,l,0.5256781999996747,correct,,22,C,2024-04-30_14h19.16.082,gca_discrimination2,2022.2.4,144.08661334321903,
positions.xlsx,stimuli.xlsx,test.xlsx,stimuli/Test1.png,stimuli/Test2.png,stimuli/Social3.png,stimuli/Social4.png,stimuli/Nonsocial3.png,stimuli/Nonsocial4.png,stimuli/Social1.png,stimuli/Social2.png,stimuli/Nonsocial1.png,stimuli/Nonsocial2.png,"(-0.7, 0.5)",test1,"(-0.7, -0.5)",test1,0,0,0,0,0,5,5,5,,,,,,83.11006950000046,ä,0.3413535999989108,correct,,22,C,2024-04-30_14h19.16.082,gca_discrimination2,2022.2.4,144.08661334321903,
positions.xlsx,stimuli.xlsx,test.xlsx,stimuli/Test1.png,stimuli/Test2.png,stimuli/Social3.png,stimuli/Social4.png,stimuli/Nonsocial3.png,stimuli/Nonsocial4.png,stimuli/Social1.png,stimuli/Social2.png,stimuli/Nonsocial1.png,stimuli/Nonsocial2.png,"(-0.7, 0.5)",test2,"(0.7, 0.5)",test1,0,0,0,0,0,6,6,2,,,,,,88.00574389999929,l,0.5969201999996585,correct,,22,C,2024-04-30_14h19.16.082,gca_discrimination2,2022.2.4,144.08661334321903,
positions.xlsx,stimuli.xlsx,test.xlsx,stimuli/Test1.png,stimuli/Test2.png,stimuli/Social3.png,stimuli/Social4.png,stimuli/Nonsocial3.png,stimuli/Nonsocial4.png,stimuli/Social1.png,stimuli/Social2.png,stimuli/Nonsocial1.png,stimuli/Nonsocial2.png,"(0.7, -0.5)",test1,"(0.7, 0.5)",test1,0,0,0,0,0,7,7,6,,,,,,93.29717390000042,ä,0.2650524000000587,correct,,22,C,2024-04-30_14h19.16.082,gca_discrimination2,2022.2.4,144.08661334321903,
positions.xlsx,stimuli.xlsx,test.xlsx,stimuli/Test1.png,stimuli/Test2.png,stimuli/Social3.png,stimuli/Social4.png,stimuli/Nonsocial3.png,stimuli/Nonsocial4.png,stimuli/Social1.png,stimuli/Social2.png,stimuli/Nonsocial1.png,stimuli/Nonsocial2.png,"(-0.7, 0.5)",test2,"(-0.7, -0.5)",test2,0,0,0,0,0,8,8,3,,,,,,98.21361620000062,ä,0.5814414999986184,correct,,22,C,2024-04-30_14h19.16.082,gca_discrimination2,2022.2.4,144.08661334321903,
positions.xlsx,stimuli.xlsx,test.xlsx,stimuli/Test1.png,stimuli/Test2.png,stimuli/Social3.png,stimuli/Social4.png,stimuli/Nonsocial3.png,stimuli/Nonsocial4.png,stimuli/Social1.png,stimuli/Social2.png,stimuli/Nonsocial1.png,stimuli/Nonsocial2.png,"(0.7, 0.5)",test1,"(-0.7, 0.5)",test2,0,0,0,0,0,9,9,0,,,,,,103.60927989999982,l,0.377693200000067,correct,,22,C,2024-04-30_14h19.16.082,gca_discrimination2,2022.2.4,144.08661334321903,
positions.xlsx,stimuli.xlsx,test.xlsx,stimuli/Test1.png,stimuli/Test2.png,stimuli/Social3.png,stimuli/Social4.png,stimuli/Nonsocial3.png,stimuli/Nonsocial4.png,stimuli/Social1.png,stimuli/Social2.png,stimuli/Nonsocial1.png,stimuli/Nonsocial2.png,"(-0.7, -0.5)",cs_neg_s_new,"(-0.7, 0.5)",cs_neg_s_new,0,0,0,0,,,,,0,0,0,64,,131.53866750000088,ä,0.6556708000007347,correct,106.24107290000029,22,C,2024-04-30_14h19.16.082,gca_discrimination2,2022.2.4,144.08661334321903,
positions.xlsx,stimuli.xlsx,test.xlsx,stimuli/Test1.png,stimuli/Test2.png,stimuli/Social3.png,stimuli/Social4.png,stimuli/Nonsocial3.png,stimuli/Nonsocial4.png,stimuli/Social1.png,stimuli/Social2.png,stimuli/Nonsocial1.png,stimuli/Nonsocial2.png,"(0.7, 0.5)",cs_neg_ns,"(0.7, -0.5)",cs_neg_ns,0,0,0,0,,,,,0,1,1,92,,134.57328310000048,l,0.5572670000001381,wrong,,22,C,2024-04-30_14h19.16.082,gca_discrimination2,2022.2.4,144.08661334321903,
positions.xlsx,stimuli.xlsx,test.xlsx,stimuli/Test1.png,stimuli/Test2.png,stimuli/Social3.png,stimuli/Social4.png,stimuli/Nonsocial3.png,stimuli/Nonsocial4.png,stimuli/Social1.png,stimuli/Social2.png,stimuli/Nonsocial1.png,stimuli/Nonsocial2.png,"(-0.7, 0.5)",cs_pos_ns,"(0.7, 0.5)",cs_neg_ns,0,0,0,0,,,,,0,2,2,28,,137.8231065,l,0.8116255000004458,correct,,22,C,2024-04-30_14h19.16.082,gca_discrimination2,2022.2.4,144.08661334321903,
positions.xlsx,stimuli.xlsx,test.xlsx,stimuli/Test1.png,stimuli/Test2.png,stimuli/Social3.png,stimuli/Social4.png,stimuli/Nonsocial3.png,stimuli/Nonsocial4.png,stimuli/Social1.png,stimuli/Social2.png,stimuli/Nonsocial1.png,stimuli/Nonsocial2.png,"(0.7, 0.5)",cs_neg_s,"(0.7, -0.5)",cs_pos_s_new,0,0,0,0,,,,,0,3,3,0,,140.5174502000009,l,0.9814556000001176,correct,,22,C,2024-04-30_14h19.16.082,gca_discrimination2,2022.2.4,144.08661334321903,
positions.xlsx,stimuli.xlsx,test.xlsx,stimuli/Test1.png,stimuli/Test2.png,stimuli/Social3.png,stimuli/Social4.png,stimuli/Nonsocial3.png,stimuli/Nonsocial4.png,stimuli/Social1.png,stimuli/Social2.png,stimuli/Nonsocial1.png,stimuli/Nonsocial2.png,"(-0.7, 0.5)",cs_neg_s_new,"(0.7, 0.5)",cs_neg_s,0,0,0,0,,,,,0,4,4,22,,143.48264500000005,ä,1.0955677999991167,wrong,,22,C,2024-04-30_14h19.16.082,gca_discrimination2,2022.2.4,144.08661334321903,
positions.xlsx,stimuli.xlsx,test.xlsx,stimuli/Test1.png,stimuli/Test2.png,stimuli/Social3.png,stimuli/Social4.png,stimuli/Nonsocial3.png,stimuli/Nonsocial4.png,stimuli/Social1.png,stimuli/Social2.png,stimuli/Nonsocial1.png,stimuli/Nonsocial2.png,"(0.7, -0.5)",cs_neg_s_new,"(0.7, 0.5)",cs_neg_s_new,0,0,0,0,,,,,0,5,5,63,,147.12830089999989,l,1.3148913999993965,wrong,,22,C,2024-04-30_14h19.16.082,gca_discrimination2,2022.2.4,144.08661334321903,
positions.xlsx,stimuli.xlsx,test.xlsx,stimuli/Test1.png,stimuli/Test2.png,stimuli/Social3.png,stimuli/Social4.png,stimuli/Nonsocial3.png,stimuli/Nonsocial4.png,stimuli/Social1.png,stimuli/Social2.png,stimuli/Nonsocial1.png,stimuli/Nonsocial2.png,"(-0.7, 0.5)",cs_neg_s,"(-0.7, -0.5)",cs_neg_s,0,0,0,0,,,,,0,6,6,67,,150.42677680000088,ä,1.2078058999995847,correct,,22,C,2024-04-30_14h19.16.082,gca_discrimination2,2022.2.4,144.08661334321903,
positions.xlsx,stimuli.xlsx,test.xlsx,stimuli/Test1.png,stimuli/Test2.png,stimuli/Social3.png,stimuli/Social4.png,stimuli/Nonsocial3.png,stimuli/Nonsocial4.png,stimuli/Social1.png,stimuli/Social2.png,stimuli/Nonsocial1.png,stimuli/Nonsocial2.png,"(0.7, 0.5)",cs_pos_ns,"(-0.7, 0.5)",cs_neg_ns_new,0,0,0,0,,,,,0,7,7,27,,154.28081659999953,l,0.5462766000000556,correct,,22,C,2024-04-30_14h19.16.082,gca_discrimination2,2022.2.4,144.08661334321903,
positions.xlsx,stimuli.xlsx,test.xlsx,stimuli/Test1.png,stimuli/Test2.png,stimuli/Social3.png,stimuli/Social4.png,stimuli/Nonsocial3.png,stimuli/Nonsocial4.png,stimuli/Social1.png,stimuli/Social2.png,stimuli/Nonsocial1.png,stimuli/Nonsocial2.png,"(0.7, 0.5)",cs_pos_ns,"(0.7, -0.5)",cs_neg_ns,0,0,0,0,,,,,0,8,8,43,,156.73902740000085,l,0.6313241999996535,correct,,22,C,2024-04-30_14h19.16.082,gca_discrimination2,2022.2.4,144.08661334321903,
positions.xlsx,stimuli.xlsx,test.xlsx,stimuli/Test1.png,stimuli/Test2.png,stimuli/Social3.png,stimuli/Social4.png,stimuli/Nonsocial3.png,stimuli/Nonsocial4.png,stimuli/Social1.png,stimuli/Social2.png,stimuli/Nonsocial1.png,stimuli/Nonsocial2.png,"(0.7, -0.5)",cs_neg_s_new,"(-0.7, 0.5)",cs_neg_s,0,0,0,0,,,,,0,9,9,2,,159.58612560000074,l,1.0006425000010495,correct,,22,C,2024-04-30_14h19.16.082,gca_discrimination2,2022.2.4,144.08661334321903,
positions.xlsx,stimuli.xlsx,test.xlsx,stimuli/Test1.png,stimuli/Test2.png,stimuli/Social3.png,stimuli/Social4.png,stimuli/Nonsocial3.png,stimuli/Nonsocial4.png,stimuli/Social1.png,stimuli/Social2.png,stimuli/Nonsocial1.png,stimuli/Nonsocial2.png,"(-0.7, -0.5)",cs_neg_ns_new,"(0.7, -0.5)",cs_pos_ns,0,0,0,0,,,,,0,10,10,45,,163.04434220000076,l,1.7024089000005915,correct,,22,C,2024-04-30_14h19.16.082,gca_discrimination2,2022.2.4,144.08661334321903,
positions.xlsx,stimuli.xlsx,test.xlsx,stimuli/Test1.png,stimuli/Test2.png,stimuli/Social3.png,stimuli/Social4.png,stimuli/Nonsocial3.png,stimuli/Nonsocial4.png,stimuli/Social1.png,stimuli/Social2.png,stimuli/Nonsocial1.png,stimuli/Nonsocial2.png,"(-0.7, -0.5)",cs_pos_ns_new,"(-0.7, 0.5)",cs_neg_ns,0,0,0,0,,,,,0,11,11,35,,167.3149797999995,l,0.9351690000003146,correct,,22,C,2024-04-30_14h19.16.082,gca_discrimination2,2022.2.4,144.08661334321903,
positions.xlsx,stimuli.xlsx,test.xlsx,stimuli/Test1.png,stimuli/Test2.png,stimuli/Social3.png,stimuli/Social4.png,stimuli/Nonsocial3.png,stimuli/Nonsocial4.png,stimuli/Social1.png,stimuli/Social2.png,stimuli/Nonsocial1.png,stimuli/Nonsocial2.png,"(-0.7, -0.5)",cs_neg_ns_new,"(0.7, -0.5)",cs_neg_ns_new,0,0,0,0,,,,,0,12,12,73,,170.7731748999995,ä,0.4853151999996044,correct,,22,C,2024-04-30_14h19.16.082,gca_discrimination2,2022.2.4,144.08661334321903,
positions.xlsx,stimuli.xlsx,test.xlsx,stimuli/Test1.png,stimuli/Test2.png,stimuli/Social3.png,stimuli/Social4.png,stimuli/Nonsocial3.png,stimuli/Nonsocial4.png,stimuli/Social1.png,stimuli/Social2.png,stimuli/Nonsocial1.png,stimuli/Nonsocial2.png,"(-0.7, 0.5)",cs_neg_s_new,"(0.7, 0.5)",cs_neg_s_new,0,0,0,0,,,,,0,13,13,58,,173.68278590000045,ä,0.7118431999988388,correct,,22,C,2024-04-30_14h19.16.082,gca_discrimination2,2022.2.4,144.08661334321903,
positions.xlsx,stimuli.xlsx,test.xlsx,stimuli/Test1.png,stimuli/Test2.png,stimuli/Social3.png,stimuli/Social4.png,stimuli/Nonsocial3.png,stimuli/Nonsocial4.png,stimuli/Social1.png,stimuli/Social2.png,stimuli/Nonsocial1.png,stimuli/Nonsocial2.png,"(0.7, 0.5)",cs_neg_ns,"(-0.7, -0.5)",cs_pos_ns_new,0,0,0,0,,,,,0,14,14,32,,177.21036289999938,l,0.5518812000009348,correct,,22,C,2024-04-30_14h19.16.082,gca_discrimination2,2022.2.4,144.08661334321903,
positions.xlsx,stimuli.xlsx,test.xlsx,stimuli/Test1.png,stimuli/Test2.png,stimuli/Social3.png,stimuli/Social4.png,stimuli/Nonsocial3.png,stimuli/Nonsocial4.png,stimuli/Social1.png,stimuli/Social2.png,stimuli/Nonsocial1.png,stimuli/Nonsocial2.png,"(0.7, 0.5)",cs_neg_s_new,"(0.7, -0.5)",cs_neg_s_new,0,0,0,0,,,,,0,15,15,50,,179.59920710000006,l,1.2436901000000944,wrong,,22,C,2024-04-30_14h19.16.082,gca_discrimination2,2022.2.4,144.08661334321903,
positions.xlsx,stimuli.xlsx,test.xlsx,stimuli/Test1.png,stimuli/Test2.png,stimuli/Social3.png,stimuli/Social4.png,stimuli/Nonsocial3.png,stimuli/Nonsocial4.png,stimuli/Social1.png,stimuli/Social2.png,stimuli/Nonsocial1.png,stimuli/Nonsocial2.png,"(0.7, -0.5)",cs_pos_ns,"(-0.7, -0.5)",cs_neg_ns,0,0,0,0,,,,,0,16,16,24,,183.6268261999994,l,0.8167357000002085,correct,,22,C,2024-04-30_14h19.16.082,gca_discrimination2,2022.2.4,144.08661334321903,
positions.xlsx,stimuli.xlsx,test.xlsx,stimuli/Test1.png,stimuli/Test2.png,stimuli/Social3.png,stimuli/Social4.png,stimuli/Nonsocial3.png,stimuli/Nonsocial4.png,stimuli/Social1.png,stimuli/Social2.png,stimuli/Nonsocial1.png,stimuli/Nonsocial2.png,"(-0.7, 0.5)",cs_neg_ns,"(-0.7, -0.5)",cs_pos_ns_new,0,0,0,0,,,,,0,17,17,40,,186.91832950000025,ä,1.1886848999984068,wrong,,22,C,2024-04-30_14h19.16.082,gca_discrimination2,2022.2.4,144.08661334321903,
positions.xlsx,stimuli.xlsx,test.xlsx,stimuli/Test1.png,stimuli/Test2.png,stimuli/Social3.png,stimuli/Social4.png,stimuli/Nonsocial3.png,stimuli/Nonsocial4.png,stimuli/Social1.png,stimuli/Social2.png,stimuli/Nonsocial1.png,stimuli/Nonsocial2.png,"(-0.7, 0.5)",cs_neg_ns,"(-0.7, -0.5)",cs_neg_ns,0,0,0,0,,,,,0,18,18,81,,190.86268569999993,ä,1.1477235999991535,correct,,22,C,2024-04-30_14h19.16.082,gca_discrimination2,2022.2.4,144.08661334321903,
positions.xlsx,stimuli.xlsx,test.xlsx,stimuli/Test1.png,stimuli/Test2.png,stimuli/Social3.png,stimuli/Social4.png,stimuli/Nonsocial3.png,stimuli/Nonsocial4.png,stimuli/Social1.png,stimuli/Social2.png,stimuli/Nonsocial1.png,stimuli/Nonsocial2.png,"(-0.7, 0.5)",cs_neg_ns_new,"(0.7, 0.5)",cs_neg_ns_new,0,0,0,0,,,,,0,19,19,76,,193.93194650000078,ä,0.8230758000008791,correct,,22,C,2024-04-30_14h19.16.082,gca_discrimination2,2022.2.4,144.08661334321903,
positions.xlsx,stimuli.xlsx,test.xlsx,stimuli/Test1.png,stimuli/Test2.png,stimuli/Social3.png,stimuli/Social4.png,stimuli/Nonsocial3.png,stimuli/Nonsocial4.png,stimuli/Social1.png,stimuli/Social2.png,stimuli/Nonsocial1.png,stimuli/Nonsocial2.png,"(-0.7, -0.5)",cs_pos_s,"(-0.7, 0.5)",cs_pos_s,0,0,0,0,,,,,0,20,20,49,,197.4248195,ä,0.6339745000004768,correct,,22,C,2024-04-30_14h19.16.082,gca_discrimination2,2022.2.4,144.08661334321903,
positions.xlsx,stimuli.xlsx,test.xlsx,stimuli/Test1.png,stimuli/Test2.png,stimuli/Social3.png,stimuli/Social4.png,stimuli/Nonsocial3.png,stimuli/Nonsocial4.png,stimuli/Social1.png,stimuli/Social2.png,stimuli/Nonsocial1.png,stimuli/Nonsocial2.png,"(-0.7, 0.5)",cs_pos_s,"(-0.7, -0.5)",cs_pos_s_new,0,0,0,0,,,,,0,21,21,15,,199.98719940000046,l,0.599239100001796,correct,,22,C,2024-04-30_14h19.16.082,gca_discrimination2,2022.2.4,144.08661334321903,
positions.xlsx,stimuli.xlsx,test.xlsx,stimuli/Test1.png,stimuli/Test2.png,stimuli/Social3.png,stimuli/Social4.png,stimuli/Nonsocial3.png,stimuli/Nonsocial4.png,stimuli/Social1.png,stimuli/Social2.png,stimuli/Nonsocial1.png,stimuli/Nonsocial2.png,"(-0.7, -0.5)",cs_pos_s_new,"(0.7, -0.5)",cs_pos_s_new,0,0,0,0,,,,,0,22,22,52,,203.27881960000013,ä,0.9881234000004042,correct,,22,C,2024-04-30_14h19.16.082,gca_discrimination2,2022.2.4,144.08661334321903,
positions.xlsx,stimuli.xlsx,test.xlsx,stimuli/Test1.png,stimuli/Test2.png,stimuli/Social3.png,stimuli/Social4.png,stimuli/Nonsocial3.png,stimuli/Nonsocial4.png,stimuli/Social1.png,stimuli/Social2.png,stimuli/Nonsocial1.png,stimuli/Nonsocial2.png,"(-0.7, -0.5)",cs_pos_s_new,"(0.7, 0.5)",cs_neg_s,0,0,0,0,,,,,0,23,23,20,,206.2231279000007,l,0.5241150000001653,correct,,22,C,2024-04-30_14h19.16.082,gca_discrimination2,2022.2.4,144.08661334321903,
positions.xlsx,stimuli.xlsx,test.xlsx,stimuli/Test1.png,stimuli/Test2.png,stimuli/Social3.png,stimuli/Social4.png,stimuli/Nonsocial3.png,stimuli/Nonsocial4.png,stimuli/Social1.png,stimuli/Social2.png,stimuli/Nonsocial1.png,stimuli/Nonsocial2.png,"(0.7, -0.5)",cs_pos_s_new,"(-0.7, -0.5)",cs_pos_s,0,0,0,0,,,,,0,24,24,19,,208.97299569999996,l,0.8697298000006413,correct,,22,C,2024-04-30_14h19.16.082,gca_discrimination2,2022.2.4,144.08661334321903,
positions.xlsx,stimuli.xlsx,test.xlsx,stimuli/Test1.png,stimuli/Test2.png,stimuli/Social3.png,stimuli/Social4.png,stimuli/Nonsocial3.png,stimuli/Nonsocial4.png,stimuli/Social1.png,stimuli/Social2.png,stimuli/Nonsocial1.png,stimuli/Nonsocial2.png,"(-0.7, 0.5)",cs_pos_ns_new,"(-0.7, -0.5)",cs_pos_ns,0,0,0,0,,,,,0,25,25,42,,212.5630885999999,l,1.3992656999998871,correct,,22,C,2024-04-30_14h19.16.082,gca_discrimination2,2022.2.4,144.08661334321903,
positions.xlsx,stimuli.xlsx,test.xlsx,stimuli/Test1.png,stimuli/Test2.png,stimuli/Social3.png,stimuli/Social4.png,stimuli/Nonsocial3.png,stimuli/Nonsocial4.png,stimuli/Social1.png,stimuli/Social2.png,stimuli/Nonsocial1.png,stimuli/Nonsocial2.png,"(-0.7, -0.5)",cs_neg_s_new,"(0.7, -0.5)",cs_neg_s_new,0,0,0,0,,,,,0,26,26,56,,216.3407599000002,ä,0.6301579000009951,correct,,22,C,2024-04-30_14h19.16.082,gca_discrimination2,2022.2.4,144.08661334321903,
positions.xlsx,stimuli.xlsx,test.xlsx,stimuli/Test1.png,stimuli/Test2.png,stimuli/Social3.png,stimuli/Social4.png,stimuli/Nonsocial3.png,stimuli/Nonsocial4.png,stimuli/Social1.png,stimuli/Social2.png,stimuli/Nonsocial1.png,stimuli/Nonsocial2.png,"(-0.7, 0.5)",cs_neg_ns,"(0.7, 0.5)",cs_neg_ns,0,0,0,0,,,,,0,27,27,77,,219.04202910000095,l,1.2080132999999478,wrong,,22,C,2024-04-30_14h19.16.082,gca_discrimination2,2022.2.4,144.08661334321903,
positions.xlsx,stimuli.xlsx,test.xlsx,stimuli/Test1.png,stimuli/Test2.png,stimuli/Social3.png,stimuli/Social4.png,stimuli/Nonsocial3.png,stimuli/Nonsocial4.png,stimuli/Social1.png,stimuli/Social2.png,stimuli/Nonsocial1.png,stimuli/Nonsocial2.png,"(0.7, -0.5)",cs_neg_ns,"(0.7, 0.5)",cs_neg_ns,0,0,0,0,,,,,0,28,28,87,,222.13911130000088,ä,0.7838291999996727,correct,,22,C,2024-04-30_14h19.16.082,gca_discrimination2,2022.2.4,144.08661334321903,
positions.xlsx,stimuli.xlsx,test.xlsx,stimuli/Test1.png,stimuli/Test2.png,stimuli/Social3.png,stimuli/Social4.png,stimuli/Nonsocial3.png,stimuli/Nonsocial4.png,stimuli/Social1.png,stimuli/Social2.png,stimuli/Nonsocial1.png,stimuli/Nonsocial2.png,"(0.7, 0.5)",cs_neg_s,"(0.7, -0.5)",cs_pos_s,0,0,0,0,,,,,0,29,29,18,,225.01401869999972,l,0.4921479000004183,correct,,22,C,2024-04-30_14h19.16.082,gca_discrimination2,2022.2.4,144.08661334321903,
positions.xlsx,stimuli.xlsx,test.xlsx,stimuli/Test1.png,stimuli/Test2.png,stimuli/Social3.png,stimuli/Social4.png,stimuli/Nonsocial3.png,stimuli/Nonsocial4.png,stimuli/Social1.png,stimuli/Social2.png,stimuli/Nonsocial1.png,stimuli/Nonsocial2.png,"(0.7, -0.5)",cs_pos_ns_new,"(-0.7, 0.5)",cs_pos_ns_new,0,0,0,0,,,,,0,30,30,86,,227.60419759999968,l,0.8866372000011324,wrong,,22,C,2024-04-30_14h19.16.082,gca_discrimination2,2022.2.4,144.08661334321903,
positions.xlsx,stimuli.xlsx,test.xlsx,stimuli/Test1.png,stimuli/Test2.png,stimuli/Social3.png,stimuli/Social4.png,stimuli/Nonsocial3.png,stimuli/Nonsocial4.png,stimuli/Social1.png,stimuli/Social2.png,stimuli/Nonsocial1.png,stimuli/Nonsocial2.png,"(0.7, -0.5)",cs_pos_ns,"(-0.7, 0.5)",cs_pos_ns,0,0,0,0,,,,,0,31,31,89,,230.81231359999947,ä,0.918083900000056,correct,,22,C,2024-04-30_14h19.16.082,gca_discrimination2,2022.2.4,144.08661334321903,
positions.xlsx,stimuli.xlsx,test.xlsx,stimuli/Test1.png,stimuli/Test2.png,stimuli/Social3.png,stimuli/Social4.png,stimuli/Nonsocial3.png,stimuli/Nonsocial4.png,stimuli/Social1.png,stimuli/Social2.png,stimuli/Nonsocial1.png,stimuli/Nonsocial2.png,"(0.7, -0.5)",cs_pos_s,"(-0.7, -0.5)",cs_pos_s,0,0,0,0,,,,,0,32,32,54,,234.1594722000009,ä,0.514888500001689,correct,,22,C,2024-04-30_14h19.16.082,gca_discrimination2,2022.2.4,144.08661334321903,
positions.xlsx,stimuli.xlsx,test.xlsx,stimuli/Test1.png,stimuli/Test2.png,stimuli/Social3.png,stimuli/Social4.png,stimuli/Nonsocial3.png,stimuli/Nonsocial4.png,stimuli/Social1.png,stimuli/Social2.png,stimuli/Nonsocial1.png,stimuli/Nonsocial2.png,"(-0.7, -0.5)",cs_neg_s,"(0.7, -0.5)",cs_neg_s,0,0,0,0,,,,,0,33,33,66,,237.48570260000088,ä,0.6929927000001044,correct,,22,C,2024-04-30_14h19.16.082,gca_discrimination2,2022.2.4,144.08661334321903,
positions.xlsx,stimuli.xlsx,test.xlsx,stimuli/Test1.png,stimuli/Test2.png,stimuli/Social3.png,stimuli/Social4.png,stimuli/Nonsocial3.png,stimuli/Nonsocial4.png,stimuli/Social1.png,stimuli/Social2.png,stimuli/Nonsocial1.png,stimuli/Nonsocial2.png,"(0.7, -0.5)",cs_pos_s_new,"(0.7, 0.5)",cs_neg_s_new,0,0,0,0,,,,,0,34,34,4,,240.98557029999938,l,0.4904457000011462,correct,,22,C,2024-04-30_14h19.16.082,gca_discrimination2,2022.2.4,144.08661334321903,
positions.xlsx,stimuli.xlsx,test.xlsx,stimuli/Test1.png,stimuli/Test2.png,stimuli/Social3.png,stimuli/Social4.png,stimuli/Nonsocial3.png,stimuli/Nonsocial4.png,stimuli/Social1.png,stimuli/Social2.png,stimuli/Nonsocial1.png,stimuli/Nonsocial2.png,"(0.7, -0.5)",cs_neg_ns_new,"(-0.7, -0.5)",cs_neg_ns_new,0,0,0,0,,,,,0,35,35,90,,244.1868424000004,ä,0.5353912000009586,correct,,22,C,2024-04-30_14h19.16.082,gca_discrimination2,2022.2.4,144.08661334321903,
positions.xlsx,stimuli.xlsx,test.xlsx,stimuli/Test1.png,stimuli/Test2.png,stimuli/Social3.png,stimuli/Social4.png,stimuli/Nonsocial3.png,stimuli/Nonsocial4.png,stimuli/Social1.png,stimuli/Social2.png,stimuli/Nonsocial1.png,stimuli/Nonsocial2.png,"(-0.7, -0.5)",cs_neg_ns,"(0.7, 0.5)",cs_pos_ns,0,0,0,0,,,,,0,36,36,44,,246.8256206999995,l,0.5617893999988155,correct,,22,C,2024-04-30_14h19.16.082,gca_discrimination2,2022.2.4,144.08661334321903,
positions.xlsx,stimuli.xlsx,test.xlsx,stimuli/Test1.png,stimuli/Test2.png,stimuli/Social3.png,stimuli/Social4.png,stimuli/Nonsocial3.png,stimuli/Nonsocial4.png,stimuli/Social1.png,stimuli/Social2.png,stimuli/Nonsocial1.png,stimuli/Nonsocial2.png,"(0.7, 0.5)",cs_neg_s,"(0.7, -0.5)",cs_neg_s,0,0,0,0,,,,,0,37,37,61,,249.85328970000046,ä,1.0287928999987344,correct,,22,C,2024-04-30_14h19.16.082,gca_discrimination2,2022.2.4,144.08661334321903,
positions.xlsx,stimuli.xlsx,test.xlsx,stimuli/Test1.png,stimuli/Test2.png,stimuli/Social3.png,stimuli/Social4.png,stimuli/Nonsocial3.png,stimuli/Nonsocial4.png,stimuli/Social1.png,stimuli/Social2.png,stimuli/Nonsocial1.png,stimuli/Nonsocial2.png,"(0.7, 0.5)",cs_pos_s,"(-0.7, -0.5)",cs_neg_s_new,0,0,0,0,,,,,0,38,38,5,,253.25590440000087,l,0.4985273000002053,correct,,22,C,2024-04-30_14h19.16.082,gca_discrimination2,2022.2.4,144.08661334321903,
positions.xlsx,stimuli.xlsx,test.xlsx,stimuli/Test1.png,stimuli/Test2.png,stimuli/Social3.png,stimuli/Social4.png,stimuli/Nonsocial3.png,stimuli/Nonsocial4.png,stimuli/Social1.png,stimuli/Social2.png,stimuli/Nonsocial1.png,stimuli/Nonsocial2.png,"(0.7, 0.5)",cs_neg_s_new,"(-0.7, 0.5)",cs_pos_s_new,0,0,0,0,,,,,0,39,39,21,,256.07523030000084,l,1.2162009000003309,correct,,22,C,2024-04-30_14h19.16.082,gca_discrimination2,2022.2.4,144.08661334321903,
positions.xlsx,stimuli.xlsx,test.xlsx,stimuli/Test1.png,stimuli/Test2.png,stimuli/Social3.png,stimuli/Social4.png,stimuli/Nonsocial3.png,stimuli/Nonsocial4.png,stimuli/Social1.png,stimuli/Social2.png,stimuli/Nonsocial1.png,stimuli/Nonsocial2.png,"(0.7, 0.5)",cs_pos_s,"(0.7, -0.5)",cs_neg_s_new,0,0,0,0,,,,,0,40,40,1,,260.0611833999992,l,0.589377099999183,correct,,22,C,2024-04-30_14h19.16.082,gca_discrimination2,2022.2.4,144.08661334321903,
positions.xlsx,stimuli.xlsx,test.xlsx,stimuli/Test1.png,stimuli/Test2.png,stimuli/Social3.png,stimuli/Social4.png,stimuli/Nonsocial3.png,stimuli/Nonsocial4.png,stimuli/Social1.png,stimuli/Social2.png,stimuli/Nonsocial1.png,stimuli/Nonsocial2.png,"(0.7, -0.5)",cs_neg_ns,"(-0.7, 0.5)",cs_neg_ns,0,0,0,0,,,,,0,41,41,74,,262.7694162000007,ä,0.5534508000000642,correct,,22,C,2024-04-30_14h19.16.082,gca_discrimination2,2022.2.4,144.08661334321903,
positions.xlsx,stimuli.xlsx,test.xlsx,stimuli/Test1.png,stimuli/Test2.png,stimuli/Social3.png,stimuli/Social4.png,stimuli/Nonsocial3.png,stimuli/Nonsocial4.png,stimuli/Social1.png,stimuli/Social2.png,stimuli/Nonsocial1.png,stimuli/Nonsocial2.png,"(-0.7, 0.5)",cs_pos_s,"(0.7, -0.5)",cs_pos_s_new,0,0,0,0,,,,,0,42,42,8,,265.7831803000008,l,0.35580990000016754,correct,,22,C,2024-04-30_14h19.16.082,gca_discrimination2,2022.2.4,144.08661334321903,
positions.xlsx,stimuli.xlsx,test.xlsx,stimuli/Test1.png,stimuli/Test2.png,stimuli/Social3.png,stimuli/Social4.png,stimuli/Nonsocial3.png,stimuli/Nonsocial4.png,stimuli/Social1.png,stimuli/Social2.png,stimuli/Nonsocial1.png,stimuli/Nonsocial2.png,"(-0.7, 0.5)",cs_pos_s,"(0.7, -0.5)",cs_pos_s,0,0,0,0,,,,,0,43,43,68,,268.06777540000076,ä,0.7989562000002479,correct,,22,C,2024-04-30_14h19.16.082,gca_discrimination2,2022.2.4,144.08661334321903,
positions.xlsx,stimuli.xlsx,test.xlsx,stimuli/Test1.png,stimuli/Test2.png,stimuli/Social3.png,stimuli/Social4.png,stimuli/Nonsocial3.png,stimuli/Nonsocial4.png,stimuli/Social1.png,stimuli/Social2.png,stimuli/Nonsocial1.png,stimuli/Nonsocial2.png,"(0.7, -0.5)",cs_neg_ns_new,"(0.7, 0.5)",cs_neg_ns_new,0,0,0,0,,,,,0,44,44,93,,271.1162989000004,ä,0.7194964999998774,correct,,22,C,2024-04-30_14h19.16.082,gca_discrimination2,2022.2.4,144.08661334321903,
positions.xlsx,stimuli.xlsx,test.xlsx,stimuli/Test1.png,stimuli/Test2.png,stimuli/Social3.png,stimuli/Social4.png,stimuli/Nonsocial3.png,stimuli/Nonsocial4.png,stimuli/Social1.png,stimuli/Social2.png,stimuli/Nonsocial1.png,stimuli/Nonsocial2.png,"(-0.7, -0.5)",cs_neg_ns,"(0.7, -0.5)",cs_neg_ns,0,0,0,0,,,,,0,45,45,84,,274.6439556000005,ä,0.74222760000157,correct,,22,C,2024-04-30_14h19.16.082,gca_discrimination2,2022.2.4,144.08661334321903,
positions.xlsx,stimuli.xlsx,test.xlsx,stimuli/Test1.png,stimuli/Test2.png,stimuli/Social3.png,stimuli/Social4.png,stimuli/Nonsocial3.png,stimuli/Nonsocial4.png,stimuli/Social1.png,stimuli/Social2.png,stimuli/Nonsocial1.png,stimuli/Nonsocial2.png,"(-0.7, -0.5)",cs_neg_ns,"(-0.7, 0.5)",cs_pos_ns_new,0,0,0,0,,,,,0,46,46,29,,277.7688177,l,0.49031660000036936,correct,,22,C,2024-04-30_14h19.16.082,gca_discrimination2,2022.2.4,144.08661334321903,
positions.xlsx,stimuli.xlsx,test.xlsx,stimuli/Test1.png,stimuli/Test2.png,stimuli/Social3.png,stimuli/Social4.png,stimuli/Nonsocial3.png,stimuli/Nonsocial4.png,stimuli/Social1.png,stimuli/Social2.png,stimuli/Nonsocial1.png,stimuli/Nonsocial2.png,"(-0.7, -0.5)",cs_pos_ns,"(0.7, -0.5)",cs_pos_ns,0,0,0,0,,,,,0,47,47,91,,280.37979670000095,l,0.8064641999990272,wrong,,22,C,2024-04-30_14h19.16.082,gca_discrimination2,2022.2.4,144.08661334321903,
positions.xlsx,stimuli.xlsx,test.xlsx,stimuli/Test1.png,stimuli/Test2.png,stimuli/Social3.png,stimuli/Social4.png,stimuli/Nonsocial3.png,stimuli/Nonsocial4.png,stimuli/Social1.png,stimuli/Social2.png,stimuli/Nonsocial1.png,stimuli/Nonsocial2.png,"(0.7, -0.5)",cs_pos_s,"(-0.7, 0.5)",cs_neg_s,0,0,0,0,,,,,0,48,48,13,,283.0671892999999,l,0.4797686000001704,correct,,22,C,2024-04-30_14h19.16.082,gca_discrimination2,2022.2.4,144.08661334321903,
positions.xlsx,stimuli.xlsx,test.xlsx,stimuli/Test1.png,stimuli/Test2.png,stimuli/Social3.png,stimuli/Social4.png,stimuli/Nonsocial3.png,stimuli/Nonsocial4.png,stimuli/Social1.png,stimuli/Social2.png,stimuli/Nonsocial1.png,stimuli/Nonsocial2.png,"(-0.7, -0.5)",cs_pos_s,"(0.7, 0.5)",cs_pos_s_new,0,0,0,0,,,,,0,49,49,9,,285.4976788999993,l,0.6174315999996907,correct,,22,C,2024-04-30_14h19.16.082,gca_discrimination2,2022.2.4,144.08661334321903,
positions.xlsx,stimuli.xlsx,test.xlsx,stimuli/Test1.png,stimuli/Test2.png,stimuli/Social3.png,stimuli/Social4.png,stimuli/Nonsocial3.png,stimuli/Nonsocial4.png,stimuli/Social1.png,stimuli/Social2.png,stimuli/Nonsocial1.png,stimuli/Nonsocial2.png,"(-0.7, -0.5)",cs_pos_ns_new,"(0.7, -0.5)",cs_neg_ns_new,0,0,0,0,,,,,0,50,50,30,,288.44197279999935,l,0.4980044000003545,correct,,22,C,2024-04-30_14h19.16.082,gca_discrimination2,2022.2.4,144.08661334321903,
positions.xlsx,stimuli.xlsx,test.xlsx,stimuli/Test1.png,stimuli/Test2.png,stimuli/Social3.png,stimuli/Social4.png,stimuli/Nonsocial3.png,stimuli/Nonsocial4.png,stimuli/Social1.png,stimuli/Social2.png,stimuli/Nonsocial1.png,stimuli/Nonsocial2.png,"(0.7, -0.5)",cs_pos_ns_new,"(0.7, 0.5)",cs_pos_ns_new,0,0,0,0,,,,,0,51,51,80,,291.4279721999992,ä,0.5436231999992742,correct,,22,C,2024-04-30_14h19.16.082,gca_discrimination2,2022.2.4,144.08661334321903,
positions.xlsx,stimuli.xlsx,test.xlsx,stimuli/Test1.png,stimuli/Test2.png,stimuli/Social3.png,stimuli/Social4.png,stimuli/Nonsocial3.png,stimuli/Nonsocial4.png,stimuli/Social1.png,stimuli/Social2.png,stimuli/Nonsocial1.png,stimuli/Nonsocial2.png,"(-0.7, -0.5)",cs_neg_ns,"(0.7, -0.5)",cs_pos_ns_new,0,0,0,0,,,,,0,52,52,41,,294.32368119999956,ä,0.5188648999992438,wrong,,22,C,2024-04-30_14h19.16.082,gca_discrimination2,2022.2.4,144.08661334321903,
positions.xlsx,stimuli.xlsx,test.xlsx,stimuli/Test1.png,stimuli/Test2.png,stimuli/Social3.png,stimuli/Social4.png,stimuli/Nonsocial3.png,stimuli/Nonsocial4.png,stimuli/Social1.png,stimuli/Social2.png,stimuli/Nonsocial1.png,stimuli/Nonsocial2.png,"(0.7, -0.5)",cs_neg_s,"(-0.7, -0.5)",cs_neg_s,0,0,0,0,,,,,0,53,53,48,,297.19161130000066,l,0.9391297000001941,wrong,,22,C,2024-04-30_14h19.16.082,gca_discrimination2,2022.2.4,144.08661334321903,
positions.xlsx,stimuli.xlsx,test.xlsx,stimuli/Test1.png,stimuli/Test2.png,stimuli/Social3.png,stimuli/Social4.png,stimuli/Nonsocial3.png,stimuli/Nonsocial4.png,stimuli/Social1.png,stimuli/Social2.png,stimuli/Nonsocial1.png,stimuli/Nonsocial2.png,"(0.7, 0.5)",cs_neg_s_new,"(-0.7, -0.5)",cs_neg_s_new,0,0,0,0,,,,,0,54,54,51,,300.3720596999992,ä,0.42253249999885156,correct,,22,C,2024-04-30_14h19.16.082,gca_discrimination2,2022.2.4,144.08661334321903,
positions.xlsx,stimuli.xlsx,test.xlsx,stimuli/Test1.png,stimuli/Test2.png,stimuli/Social3.png,stimuli/Social4.png,stimuli/Nonsocial3.png,stimuli/Nonsocial4.png,stimuli/Social1.png,stimuli/Social2.png,stimuli/Nonsocial1.png,stimuli/Nonsocial2.png,"(0.7, 0.5)",cs_neg_ns_new,"(-0.7, 0.5)",cs_pos_ns,0,0,0,0,,,,,0,55,55,37,,303.24687970000014,l,0.5234629999995377,correct,,22,C,2024-04-30_14h19.16.082,gca_discrimination2,2022.2.4,144.08661334321903,
positions.xlsx,stimuli.xlsx,test.xlsx,stimuli/Test1.png,stimuli/Test2.png,stimuli/Social3.png,stimuli/Social4.png,stimuli/Nonsocial3.png,stimuli/Nonsocial4.png,stimuli/Social1.png,stimuli/Social2.png,stimuli/Nonsocial1.png,stimuli/Nonsocial2.png,"(0.7, 0.5)",cs_neg_ns,"(-0.7, 0.5)",cs_neg_ns,0,0,0,0,,,,,0,56,56,78,,306.3023348000006,ä,0.45989580000059505,correct,,22,C,2024-04-30_14h19.16.082,gca_discrimination2,2022.2.4,144.08661334321903,
positions.xlsx,stimuli.xlsx,test.xlsx,stimuli/Test1.png,stimuli/Test2.png,stimuli/Social3.png,stimuli/Social4.png,stimuli/Nonsocial3.png,stimuli/Nonsocial4.png,stimuli/Social1.png,stimuli/Social2.png,stimuli/Nonsocial1.png,stimuli/Nonsocial2.png,"(-0.7, -0.5)",cs_pos_s_new,"(-0.7, 0.5)",cs_pos_s_new,0,0,0,0,,,,,0,57,57,60,,309.5036068999998,ä,0.642573099999936,correct,,22,C,2024-04-30_14h19.16.082,gca_discrimination2,2022.2.4,144.08661334321903,
positions.xlsx,stimuli.xlsx,test.xlsx,stimuli/Test1.png,stimuli/Test2.png,stimuli/Social3.png,stimuli/Social4.png,stimuli/Nonsocial3.png,stimuli/Nonsocial4.png,stimuli/Social1.png,stimuli/Social2.png,stimuli/Nonsocial1.png,stimuli/Nonsocial2.png,"(-0.7, 0.5)",cs_pos_ns,"(0.7, -0.5)",cs_pos_ns,0,0,0,0,,,,,0,58,58,95,,312.06599819999974,ä,0.584924000000683,correct,,22,C,2024-04-30_14h19.16.082,gca_discrimination2,2022.2.4,144.08661334321903,
positions.xlsx,stimuli.xlsx,test.xlsx,stimuli/Test1.png,stimuli/Test2.png,stimuli/Social3.png,stimuli/Social4.png,stimuli/Nonsocial3.png,stimuli/Nonsocial4.png,stimuli/Social1.png,stimuli/Social2.png,stimuli/Nonsocial1.png,stimuli/Nonsocial2.png,"(0.7, 0.5)",cs_neg_s,"(-0.7, -0.5)",cs_pos_s,0,0,0,0,,,,,0,59,59,7,,315.3992025999996,l,0.5236335000008694,correct,,22,C,2024-04-30_14h19.16.082,gca_discrimination2,2022.2.4,144.08661334321903,
positions.xlsx,stimuli.xlsx,test.xlsx,stimuli/Test1.png,stimuli/Test2.png,stimuli/Social3.png,stimuli/Social4.png,stimuli/Nonsocial3.png,stimuli/Nonsocial4.png,stimuli/Social1.png,stimuli/Social2.png,stimuli/Nonsocial1.png,stimuli/Nonsocial2.png,"(0.7, 0.5)",cs_pos_ns_new,"(0.7, -0.5)",cs_neg_ns,0,0,0,0,,,,,0,60,60,39,,318.08656449999944,ä,0.5641718000006222,wrong,,22,C,2024-04-30_14h19.16.082,gca_discrimination2,2022.2.4,144.08661334321903,
positions.xlsx,stimuli.xlsx,test.xlsx,stimuli/Test1.png,stimuli/Test2.png,stimuli/Social3.png,stimuli/Social4.png,stimuli/Nonsocial3.png,stimuli/Nonsocial4.png,stimuli/Social1.png,stimuli/Social2.png,stimuli/Nonsocial1.png,stimuli/Nonsocial2.png,"(0.7, 0.5)",cs_pos_ns_new,"(0.7, -0.5)",cs_neg_ns_new,0,0,0,0,,,,,0,61,61,47,,321.1628547,l,0.45571100000051956,correct,,22,C,2024-04-30_14h19.16.082,gca_discrimination2,2022.2.4,144.08661334321903,
positions.xlsx,stimuli.xlsx,test.xlsx,stimuli/Test1.png,stimuli/Test2.png,stimuli/Social3.png,stimuli/Social4.png,stimuli/Nonsocial3.png,stimuli/Nonsocial4.png,stimuli/Social1.png,stimuli/Social2.png,stimuli/Nonsocial1.png,stimuli/Nonsocial2.png,"(0.7, 0.5)",cs_pos_ns_new,"(-0.7, 0.5)",cs_neg_ns,0,0,0,0,,,,,0,62,62,25,,323.7252580000004,ä,0.4854107999999542,wrong,,22,C,2024-04-30_14h19.16.082,gca_discrimination2,2022.2.4,144.08661334321903,
positions.xlsx,stimuli.xlsx,test.xlsx,stimuli/Test1.png,stimuli/Test2.png,stimuli/Social3.png,stimuli/Social4.png,stimuli/Nonsocial3.png,stimuli/Nonsocial4.png,stimuli/Social1.png,stimuli/Social2.png,stimuli/Nonsocial1.png,stimuli/Nonsocial2.png,"(0.7, -0.5)",cs_neg_s,"(0.7, 0.5)",cs_neg_s,0,0,0,0,,,,,0,63,63,57,,326.5237448000007,ä,0.47832560000097146,correct,,22,C,2024-04-30_14h19.16.082,gca_discrimination2,2022.2.4,144.08661334321903,
positions.xlsx,stimuli.xlsx,test.xlsx,stimuli/Test1.png,stimuli/Test2.png,stimuli/Social3.png,stimuli/Social4.png,stimuli/Nonsocial3.png,stimuli/Nonsocial4.png,stimuli/Social1.png,stimuli/Social2.png,stimuli/Nonsocial1.png,stimuli/Nonsocial2.png,"(-0.7, -0.5)",cs_pos_ns_new,"(0.7, 0.5)",cs_pos_ns,0,0,0,0,,,,,0,64,64,26,,329.37781600000017,l,0.42530640000040876,correct,,22,C,2024-04-30_14h19.16.082,gca_discrimination2,2022.2.4,144.08661334321903,
positions.xlsx,stimuli.xlsx,test.xlsx,stimuli/Test1.png,stimuli/Test2.png,stimuli/Social3.png,stimuli/Social4.png,stimuli/Nonsocial3.png,stimuli/Nonsocial4.png,stimuli/Social1.png,stimuli/Social2.png,stimuli/Nonsocial1.png,stimuli/Nonsocial2.png,"(-0.7, -0.5)",cs_pos_ns,"(0.7, 0.5)",cs_pos_ns,0,0,0,0,,,,,0,65,65,82,,332.0235434999995,ä,0.39522910000050615,correct,,22,C,2024-04-30_14h19.16.082,gca_discrimination2,2022.2.4,144.08661334321903,
positions.xlsx,stimuli.xlsx,test.xlsx,stimuli/Test1.png,stimuli/Test2.png,stimuli/Social3.png,stimuli/Social4.png,stimuli/Nonsocial3.png,stimuli/Nonsocial4.png,stimuli/Social1.png,stimuli/Social2.png,stimuli/Nonsocial1.png,stimuli/Nonsocial2.png,"(-0.7, -0.5)",cs_neg_ns,"(0.7, 0.5)",cs_pos_ns_new,0,0,0,0,,,,,0,66,66,46,,334.73871060000056,l,0.5041182999993907,correct,,22,C,2024-04-30_14h19.16.082,gca_discrimination2,2022.2.4,144.08661334321903,
positions.xlsx,stimuli.xlsx,test.xlsx,stimuli/Test1.png,stimuli/Test2.png,stimuli/Social3.png,stimuli/Social4.png,stimuli/Nonsocial3.png,stimuli/Nonsocial4.png,stimuli/Social1.png,stimuli/Social2.png,stimuli/Nonsocial1.png,stimuli/Nonsocial2.png,"(0.7, -0.5)",cs_neg_ns,"(-0.7, -0.5)",cs_pos_ns,0,0,0,0,,,,,0,67,67,34,,337.3774792999993,ä,0.8009111999999732,wrong,,22,C,2024-04-30_14h19.16.082,gca_discrimination2,2022.2.4,144.08661334321903,
positions.xlsx,stimuli.xlsx,test.xlsx,stimuli/Test1.png,stimuli/Test2.png,stimuli/Social3.png,stimuli/Social4.png,stimuli/Nonsocial3.png,stimuli/Nonsocial4.png,stimuli/Social1.png,stimuli/Social2.png,stimuli/Nonsocial1.png,stimuli/Nonsocial2.png,"(0.7, 0.5)",cs_pos_ns_new,"(-0.7, -0.5)",cs_pos_ns_new,0,0,0,0,,,,,0,68,68,85,,340.97454370000014,ä,0.43636739999965357,correct,,22,C,2024-04-30_14h19.16.082,gca_discrimination2,2022.2.4,144.08661334321903,
positions.xlsx,stimuli.xlsx,test.xlsx,stimuli/Test1.png,stimuli/Test2.png,stimuli/Social3.png,stimuli/Social4.png,stimuli/Nonsocial3.png,stimuli/Nonsocial4.png,stimuli/Social1.png,stimuli/Social2.png,stimuli/Nonsocial1.png,stimuli/Nonsocial2.png,"(-0.7, -0.5)",cs_neg_ns_new,"(0.7, 0.5)",cs_neg_ns,0,0,0,0,,,,,0,69,69,33,,343.67585970000073,l,0.27820259999862174,correct,,22,C,2024-04-30_14h19.16.082,gca_discrimination2,2022.2.4,144.08661334321903,
positions.xlsx,stimuli.xlsx,test.xlsx,stimuli/Test1.png,stimuli/Test2.png,stimuli/Social3.png,stimuli/Social4.png,stimuli/Nonsocial3.png,stimuli/Nonsocial4.png,stimuli/Social1.png,stimuli/Social2.png,stimuli/Nonsocial1.png,stimuli/Nonsocial2.png,"(-0.7, 0.5)",cs_neg_s_new,"(-0.7, -0.5)",cs_neg_s_new,0,0,0,0,,,,,0,70,70,59,,346.5090725000009,ä,0.5419554000000062,correct,,22,C,2024-04-30_14h19.16.082,gca_discrimination2,2022.2.4,144.08661334321903,
positions.xlsx,stimuli.xlsx,test.xlsx,stimuli/Test1.png,stimuli/Test2.png,stimuli/Social3.png,stimuli/Social4.png,stimuli/Nonsocial3.png,stimuli/Nonsocial4.png,stimuli/Social1.png,stimuli/Social2.png,stimuli/Nonsocial1.png,stimuli/Nonsocial2.png,"(-0.7, -0.5)",cs_neg_s,"(0.7, -0.5)",cs_pos_s,0,0,0,0,,,,,0,71,71,16,,349.21033139999963,l,0.40050519999931566,correct,,22,C,2024-04-30_14h19.16.082,gca_discrimination2,2022.2.4,144.08661334321903,
positions.xlsx,stimuli.xlsx,test.xlsx,stimuli/Test1.png,stimuli/Test2.png,stimuli/Social3.png,stimuli/Social4.png,stimuli/Nonsocial3.png,stimuli/Nonsocial4.png,stimuli/Social1.png,stimuli/Social2.png,stimuli/Nonsocial1.png,stimuli/Nonsocial2.png,"(-0.7, 0.5)",cs_neg_s_new,"(0.7, -0.5)",cs_neg_s_new,0,0,0,0,,,,,0,72,72,55,,351.6755088000009,ä,0.703924299999926,correct,,22,C,2024-04-30_14h19.16.082,gca_discrimination2,2022.2.4,144.08661334321903,
positions.xlsx,stimuli.xlsx,test.xlsx,stimuli/Test1.png,stimuli/Test2.png,stimuli/Social3.png,stimuli/Social4.png,stimuli/Nonsocial3.png,stimuli/Nonsocial4.png,stimuli/Social1.png,stimuli/Social2.png,stimuli/Nonsocial1.png,stimuli/Nonsocial2.png,"(0.7, 0.5)",cs_pos_s,"(-0.7, -0.5)",cs_pos_s,0,0,0,0,,,,,0,73,73,71,,354.5711988999992,ä,0.34322120000069845,correct,,22,C,2024-04-30_14h19.16.082,gca_discrimination2,2022.2.4,144.08661334321903,
positions.xlsx,stimuli.xlsx,test.xlsx,stimuli/Test1.png,stimuli/Test2.png,stimuli/Social3.png,stimuli/Social4.png,stimuli/Nonsocial3.png,stimuli/Nonsocial4.png,stimuli/Social1.png,stimuli/Social2.png,stimuli/Nonsocial1.png,stimuli/Nonsocial2.png,"(-0.7, 0.5)",cs_neg_ns_new,"(-0.7, -0.5)",cs_neg_ns_new,0,0,0,0,,,,,0,74,74,88,,357.4946839999993,ä,0.5081451000005472,correct,,22,C,2024-04-30_14h19.16.082,gca_discrimination2,2022.2.4,144.08661334321903,
positions.xlsx,stimuli.xlsx,test.xlsx,stimuli/Test1.png,stimuli/Test2.png,stimuli/Social3.png,stimuli/Social4.png,stimuli/Nonsocial3.png,stimuli/Nonsocial4.png,stimuli/Social1.png,stimuli/Social2.png,stimuli/Nonsocial1.png,stimuli/Nonsocial2.png,"(0.7, -0.5)",cs_pos_s,"(0.7, 0.5)",cs_neg_s,0,0,0,0,,,,,0,75,75,10,,360.04327550000016,l,0.3916121000002022,correct,,22,C,2024-04-30_14h19.16.082,gca_discrimination2,2022.2.4,144.08661334321903,
positions.xlsx,stimuli.xlsx,test.xlsx,stimuli/Test1.png,stimuli/Test2.png,stimuli/Social3.png,stimuli/Social4.png,stimuli/Nonsocial3.png,stimuli/Nonsocial4.png,stimuli/Social1.png,stimuli/Social2.png,stimuli/Nonsocial1.png,stimuli/Nonsocial2.png,"(0.7, -0.5)",cs_neg_s_new,"(-0.7, -0.5)",cs_pos_s_new,0,0,0,0,,,,,0,76,76,23,,363.2306116,l,0.7965026000001671,correct,,22,C,2024-04-30_14h19.16.082,gca_discrimination2,2022.2.4,144.08661334321903,
positions.xlsx,stimuli.xlsx,test.xlsx,stimuli/Test1.png,stimuli/Test2.png,stimuli/Social3.png,stimuli/Social4.png,stimuli/Nonsocial3.png,stimuli/Nonsocial4.png,stimuli/Social1.png,stimuli/Social2.png,stimuli/Nonsocial1.png,stimuli/Nonsocial2.png,"(-0.7, 0.5)",cs_neg_ns_new,"(0.7, -0.5)",cs_neg_ns_new,0,0,0,0,,,,,0,77,77,94,,366.6748769000005,l,0.7116554000003816,wrong,,22,C,2024-04-30_14h19.16.082,gca_discrimination2,2022.2.4,144.08661334321903,
positions.xlsx,stimuli.xlsx,test.xlsx,stimuli/Test1.png,stimuli/Test2.png,stimuli/Social3.png,stimuli/Social4.png,stimuli/Nonsocial3.png,stimuli/Nonsocial4.png,stimuli/Social1.png,stimuli/Social2.png,stimuli/Nonsocial1.png,stimuli/Nonsocial2.png,"(-0.7, -0.5)",cs_neg_ns_new,"(0.7, -0.5)",cs_neg_ns,0,0,0,0,,,,,0,78,78,38,,369.8900429000005,ä,0.5850963000011689,wrong,,22,C,2024-04-30_14h19.16.082,gca_discrimination2,2022.2.4,144.08661334321903,
positions.xlsx,stimuli.xlsx,test.xlsx,stimuli/Test1.png,stimuli/Test2.png,stimuli/Social3.png,stimuli/Social4.png,stimuli/Nonsocial3.png,stimuli/Nonsocial4.png,stimuli/Social1.png,stimuli/Social2.png,stimuli/Nonsocial1.png,stimuli/Nonsocial2.png,"(0.7, 0.5)",cs_pos_s_new,"(-0.7, -0.5)",cs_neg_s,0,0,0,0,,,,,0,79,79,12,,373.05657280000014,l,0.4501123000009102,correct,,22,C,2024-04-30_14h19.16.082,gca_discrimination2,2022.2.4,144.08661334321903,
positions.xlsx,stimuli.xlsx,test.xlsx,stimuli/Test1.png,stimuli/Test2.png,stimuli/Social3.png,stimuli/Social4.png,stimuli/Nonsocial3.png,stimuli/Nonsocial4.png,stimuli/Social1.png,stimuli/Social2.png,stimuli/Nonsocial1.png,stimuli/Nonsocial2.png,"(-0.7, 0.5)",cs_pos_s_new,"(0.7, 0.5)",cs_pos_s_new,0,0,0,0,,,,,0,80,80,69,,376.00091020000036,ä,0.5781751999984408,correct,,22,C,2024-04-30_14h19.16.082,gca_discrimination2,2022.2.4,144.08661334321903,
positions.xlsx,stimuli.xlsx,test.xlsx,stimuli/Test1.png,stimuli/Test2.png,stimuli/Social3.png,stimuli/Social4.png,stimuli/Nonsocial3.png,stimuli/Nonsocial4.png,stimuli/Social1.png,stimuli/Social2.png,stimuli/Nonsocial1.png,stimuli/Nonsocial2.png,"(-0.7, -0.5)",cs_pos_s,"(0.7, -0.5)",cs_neg_s_new,0,0,0,0,,,,,0,81,81,14,,378.4521936000001,l,0.30268660000001546,correct,,22,C,2024-04-30_14h19.16.082,gca_discrimination2,2022.2.4,144.08661334321903,
positions.xlsx,stimuli.xlsx,test.xlsx,stimuli/Test1.png,stimuli/Test2.png,stimuli/Social3.png,stimuli/Social4.png,stimuli/Nonsocial3.png,stimuli/Nonsocial4.png,stimuli/Social1.png,stimuli/Social2.png,stimuli/Nonsocial1.png,stimuli/Nonsocial2.png,"(0.7, -0.5)",cs_pos_s_new,"(-0.7, 0.5)",cs_pos_s_new,0,0,0,0,,,,,0,82,82,62,,380.8340296000006,ä,0.4808591000000888,correct,,22,C,2024-04-30_14h19.16.082,gca_discrimination2,2022.2.4,144.08661334321903,
positions.xlsx,stimuli.xlsx,test.xlsx,stimuli/Test1.png,stimuli/Test2.png,stimuli/Social3.png,stimuli/Social4.png,stimuli/Nonsocial3.png,stimuli/Nonsocial4.png,stimuli/Social1.png,stimuli/Social2.png,stimuli/Nonsocial1.png,stimuli/Nonsocial2.png,"(-0.7, -0.5)",cs_neg_ns,"(-0.7, 0.5)",cs_neg_ns,0,0,0,0,,,,,0,83,83,83,,384.076943,ä,0.6612710999997944,correct,,22,C,2024-04-30_14h19.16.082,gca_discrimination2,2022.2.4,144.08661334321903,
positions.xlsx,stimuli.xlsx,test.xlsx,stimuli/Test1.png,stimuli/Test2.png,stimuli/Social3.png,stimuli/Social4.png,stimuli/Nonsocial3.png,stimuli/Nonsocial4.png,stimuli/Social1.png,stimuli/Social2.png,stimuli/Nonsocial1.png,stimuli/Nonsocial2.png,"(-0.7, -0.5)",cs_neg_s,"(0.7, -0.5)",cs_neg_s_new,0,0,0,0,,,,,0,84,84,6,,387.25738190000084,l,0.6822718000003078,correct,,22,C,2024-04-30_14h19.16.082,gca_discrimination2,2022.2.4,144.08661334321903,
positions.xlsx,stimuli.xlsx,test.xlsx,stimuli/Test1.png,stimuli/Test2.png,stimuli/Social3.png,stimuli/Social4.png,stimuli/Nonsocial3.png,stimuli/Nonsocial4.png,stimuli/Social1.png,stimuli/Social2.png,stimuli/Nonsocial1.png,stimuli/Nonsocial2.png,"(-0.7, -0.5)",cs_pos_s,"(0.7, 0.5)",cs_pos_s,0,0,0,0,,,,,0,85,85,70,,390.3128176000009,ä,0.330441800000699,correct,,22,C,2024-04-30_14h19.16.082,gca_discrimination2,2022.2.4,144.08661334321903,
positions.xlsx,stimuli.xlsx,test.xlsx,stimuli/Test1.png,stimuli/Test2.png,stimuli/Social3.png,stimuli/Social4.png,stimuli/Nonsocial3.png,stimuli/Nonsocial4.png,stimuli/Social1.png,stimuli/Social2.png,stimuli/Nonsocial1.png,stimuli/Nonsocial2.png,"(-0.7, 0.5)",cs_neg_s,"(-0.7, -0.5)",cs_neg_s_new,0,0,0,0,,,,,0,86,86,17,,392.7224860999995,ä,0.7209504000002198,wrong,,22,C,2024-04-30_14h19.16.082,gca_discrimination2,2022.2.4,144.08661334321903,
positions.xlsx,stimuli.xlsx,test.xlsx,stimuli/Test1.png,stimuli/Test2.png,stimuli/Social3.png,stimuli/Social4.png,stimuli/Nonsocial3.png,stimuli/Nonsocial4.png,stimuli/Social1.png,stimuli/Social2.png,stimuli/Nonsocial1.png,stimuli/Nonsocial2.png,"(-0.7, 0.5)",cs_pos_s,"(0.7, 0.5)",cs_neg_s,0,0,0,0,,,,,0,87,87,3,,395.5278808000003,l,0.5545074000001478,correct,,22,C,2024-04-30_14h19.16.082,gca_discrimination2,2022.2.4,144.08661334321903,
positions.xlsx,stimuli.xlsx,test.xlsx,stimuli/Test1.png,stimuli/Test2.png,stimuli/Social3.png,stimuli/Social4.png,stimuli/Nonsocial3.png,stimuli/Nonsocial4.png,stimuli/Social1.png,stimuli/Social2.png,stimuli/Nonsocial1.png,stimuli/Nonsocial2.png,"(-0.7, -0.5)",cs_neg_ns_new,"(0.7, 0.5)",cs_pos_ns,0,0,0,0,,,,,0,88,88,36,,398.4513657000007,l,0.37517169999955513,correct,,22,C,2024-04-30_14h19.16.082,gca_discrimination2,2022.2.4,144.08661334321903,
positions.xlsx,stimuli.xlsx,test.xlsx,stimuli/Test1.png,stimuli/Test2.png,stimuli/Social3.png,stimuli/Social4.png,stimuli/Nonsocial3.png,stimuli/Nonsocial4.png,stimuli/Social1.png,stimuli/Social2.png,stimuli/Nonsocial1.png,stimuli/Nonsocial2.png,"(0.7, 0.5)",cs_pos_s_new,"(-0.7, 0.5)",cs_pos_s_new,0,0,0,0,,,,,0,89,89,65,,401.4790276999993,ä,0.5951057000002038,correct,,22,C,2024-04-30_14h19.16.082,gca_discrimination2,2022.2.4,144.08661334321903,
positions.xlsx,stimuli.xlsx,test.xlsx,stimuli/Test1.png,stimuli/Test2.png,stimuli/Social3.png,stimuli/Social4.png,stimuli/Nonsocial3.png,stimuli/Nonsocial4.png,stimuli/Social1.png,stimuli/Social2.png,stimuli/Nonsocial1.png,stimuli/Nonsocial2.png,"(0.7, 0.5)",cs_pos_ns,"(-0.7, -0.5)",cs_pos_ns,0,0,0,0,,,,,0,90,90,72,,404.8886091000004,ä,0.5219975999989401,correct,,22,C,2024-04-30_14h19.16.082,gca_discrimination2,2022.2.4,144.08661334321903,
positions.xlsx,stimuli.xlsx,test.xlsx,stimuli/Test1.png,stimuli/Test2.png,stimuli/Social3.png,stimuli/Social4.png,stimuli/Nonsocial3.png,stimuli/Nonsocial4.png,stimuli/Social1.png,stimuli/Social2.png,stimuli/Nonsocial1.png,stimuli/Nonsocial2.png,"(0.7, -0.5)",cs_neg_ns_new,"(-0.7, -0.5)",cs_pos_ns_new,0,0,0,0,,,,,0,91,91,31,,407.50656720000006,l,0.49544000000059896,correct,,22,C,2024-04-30_14h19.16.082,gca_discrimination2,2022.2.4,144.08661334321903,
positions.xlsx,stimuli.xlsx,test.xlsx,stimuli/Test1.png,stimuli/Test2.png,stimuli/Social3.png,stimuli/Social4.png,stimuli/Nonsocial3.png,stimuli/Nonsocial4.png,stimuli/Social1.png,stimuli/Social2.png,stimuli/Nonsocial1.png,stimuli/Nonsocial2.png,"(-0.7, 0.5)",cs_pos_ns,"(-0.7, -0.5)",cs_pos_ns,0,0,0,0,,,,,0,92,92,79,,409.88147650000064,ä,0.4811984999996639,correct,,22,C,2024-04-30_14h19.16.082,gca_discrimination2,2022.2.4,144.08661334321903,
positions.xlsx,stimuli.xlsx,test.xlsx,stimuli/Test1.png,stimuli/Test2.png,stimuli/Social3.png,stimuli/Social4.png,stimuli/Nonsocial3.png,stimuli/Nonsocial4.png,stimuli/Social1.png,stimuli/Social2.png,stimuli/Nonsocial1.png,stimuli/Nonsocial2.png,"(-0.7, -0.5)",cs_neg_s_new,"(0.7, 0.5)",cs_pos_s_new,0,0,0,0,,,,,0,93,93,11,,412.9855031999996,l,0.410352500000954,correct,,22,C,2024-04-30_14h19.16.082,gca_discrimination2,2022.2.4,144.08661334321903,
positions.xlsx,stimuli.xlsx,test.xlsx,stimuli/Test1.png,stimuli/Test2.png,stimuli/Social3.png,stimuli/Social4.png,stimuli/Nonsocial3.png,stimuli/Nonsocial4.png,stimuli/Social1.png,stimuli/Social2.png,stimuli/Nonsocial1.png,stimuli/Nonsocial2.png,"(-0.7, 0.5)",cs_pos_s_new,"(0.7, -0.5)",cs_pos_s_new,0,0,0,0,,,,,0,94,94,53,,415.32567740000013,ä,0.9971236000001227,correct,,22,C,2024-04-30_14h19.16.082,gca_discrimination2,2022.2.4,144.08661334321903,
positions.xlsx,stimuli.xlsx,test.xlsx,stimuli/Test1.png,stimuli/Test2.png,stimuli/Social3.png,stimuli/Social4.png,stimuli/Nonsocial3.png,stimuli/Nonsocial4.png,stimuli/Social1.png,stimuli/Social2.png,stimuli/Nonsocial1.png,stimuli/Nonsocial2.png,"(-0.7, 0.5)",cs_neg_ns,"(0.7, -0.5)",cs_neg_ns,0,0,0,0,,,,,0,95,95,75,,418.9366657999999,ä,0.41025710000030813,correct,,22,C,2024-04-30_14h19.16.082,gca_discrimination2,2022.2.4,144.08661334321903,
