posFile,stimFile,testFile,test1,test2,cs_neg_s,cs_pos_s,cs_neg_ns,cs_pos_ns,cs_neg_s_new,cs_pos_s_new,cs_neg_ns_new,cs_pos_ns_new,position1,stim1,position2,stim2,blocks.thisRepN,blocks.thisTrialN,blocks.thisN,blocks.thisIndex,learning_trials.thisRepN,learning_trials.thisTrialN,learning_trials.thisN,learning_trials.thisIndex,trials.thisRepN,trials.thisTrialN,trials.thisN,trials.thisIndex,textStart.started,key.started,key.keys,key.rt,correctness,textStartTask.started,participant,group,date,expName,psychopyVersion,frameRate,
positions.xlsx,stimuli.xlsx,test.xlsx,stimuli/Test1.png,stimuli/Test2.png,stimuli/Social2.png,stimuli/Social1.png,stimuli/Nonsocial2.png,stimuli/Nonsocial1.png,stimuli/Social4.png,stimuli/Social3.png,stimuli/Nonsocial4.png,stimuli/Nonsocial3.png,"(0.7, 0.5)",test1,"(-0.7, 0.5)",test1,0,0,0,0,0,0,0,6,,,,,27.88517539999998,60.31430590000002,l,0.4132241999999451,correct,,21,B,2024-04-30_10h48.23.964,gca_discrimination2,2022.2.4,144.0322401767772,
positions.xlsx,stimuli.xlsx,test.xlsx,stimuli/Test1.png,stimuli/Test2.png,stimuli/Social2.png,stimuli/Social1.png,stimuli/Nonsocial2.png,stimuli/Nonsocial1.png,stimuli/Social4.png,stimuli/Social3.png,stimuli/Nonsocial4.png,stimuli/Nonsocial3.png,"(0.7, 0.5)",test1,"(-0.7, 0.5)",test2,0,0,0,0,0,1,1,7,,,,,,64.65439809999998,ä,0.3286252999999988,correct,,21,B,2024-04-30_10h48.23.964,gca_discrimination2,2022.2.4,144.0322401767772,
positions.xlsx,stimuli.xlsx,test.xlsx,stimuli/Test1.png,stimuli/Test2.png,stimuli/Social2.png,stimuli/Social1.png,stimuli/Nonsocial2.png,stimuli/Nonsocial1.png,stimuli/Social4.png,stimuli/Social3.png,stimuli/Nonsocial4.png,stimuli/Nonsocial3.png,"(-0.7, -0.5)",test2,"(-0.7, 0.5)",test1,0,0,0,0,0,2,2,3,,,,,,68.9945672,ä,0.7725007999999889,correct,,21,B,2024-04-30_10h48.23.964,gca_discrimination2,2022.2.4,144.0322401767772,
positions.xlsx,stimuli.xlsx,test.xlsx,stimuli/Test1.png,stimuli/Test2.png,stimuli/Social2.png,stimuli/Social1.png,stimuli/Nonsocial2.png,stimuli/Nonsocial1.png,stimuli/Social4.png,stimuli/Social3.png,stimuli/Nonsocial4.png,stimuli/Nonsocial3.png,"(0.7, 0.5)",test1,"(-0.7, -0.5)",test1,0,0,0,0,0,3,3,2,,,,,,73.84847339999999,l,0.6066838000000416,correct,,21,B,2024-04-30_10h48.23.964,gca_discrimination2,2022.2.4,144.0322401767772,
positions.xlsx,stimuli.xlsx,test.xlsx,stimuli/Test1.png,stimuli/Test2.png,stimuli/Social2.png,stimuli/Social1.png,stimuli/Nonsocial2.png,stimuli/Nonsocial1.png,stimuli/Social4.png,stimuli/Social3.png,stimuli/Nonsocial4.png,stimuli/Nonsocial3.png,"(-0.7, -0.5)",test2,"(0.7, -0.5)",test1,0,0,0,0,0,4,4,4,,,,,,79.11907540000004,l,0.35989410000001953,wrong,,21,B,2024-04-30_10h48.23.964,gca_discrimination2,2022.2.4,144.0322401767772,
positions.xlsx,stimuli.xlsx,test.xlsx,stimuli/Test1.png,stimuli/Test2.png,stimuli/Social2.png,stimuli/Social1.png,stimuli/Nonsocial2.png,stimuli/Nonsocial1.png,stimuli/Social4.png,stimuli/Social3.png,stimuli/Nonsocial4.png,stimuli/Nonsocial3.png,"(0.7, 0.5)",test1,"(0.7, -0.5)",test1,0,0,0,0,0,5,5,5,,,,,,83.78556520000006,l,0.4609775000000127,correct,,21,B,2024-04-30_10h48.23.964,gca_discrimination2,2022.2.4,144.0322401767772,
positions.xlsx,stimuli.xlsx,test.xlsx,stimuli/Test1.png,stimuli/Test2.png,stimuli/Social2.png,stimuli/Social1.png,stimuli/Nonsocial2.png,stimuli/Nonsocial1.png,stimuli/Social4.png,stimuli/Social3.png,stimuli/Nonsocial4.png,stimuli/Nonsocial3.png,"(0.7, -0.5)",test1,"(-0.7, -0.5)",test2,0,0,0,0,0,6,6,8,,,,,,88.35482309999998,ä,0.340566400000057,correct,,21,B,2024-04-30_10h48.23.964,gca_discrimination2,2022.2.4,144.0322401767772,
positions.xlsx,stimuli.xlsx,test.xlsx,stimuli/Test1.png,stimuli/Test2.png,stimuli/Social2.png,stimuli/Social1.png,stimuli/Nonsocial2.png,stimuli/Nonsocial1.png,stimuli/Social4.png,stimuli/Social3.png,stimuli/Nonsocial4.png,stimuli/Nonsocial3.png,"(0.7, 0.5)",test2,"(-0.7, 0.5)",test1,0,0,0,0,0,7,7,9,,,,,,93.16022240000007,ä,0.3828058999999939,correct,,21,B,2024-04-30_10h48.23.964,gca_discrimination2,2022.2.4,144.0322401767772,
positions.xlsx,stimuli.xlsx,test.xlsx,stimuli/Test1.png,stimuli/Test2.png,stimuli/Social2.png,stimuli/Social1.png,stimuli/Nonsocial2.png,stimuli/Nonsocial1.png,stimuli/Social4.png,stimuli/Social3.png,stimuli/Nonsocial4.png,stimuli/Nonsocial3.png,"(-0.7, -0.5)",test1,"(0.7, -0.5)",test1,0,0,0,0,0,8,8,1,,,,,,97.88223460000006,l,0.1963513000000603,correct,,21,B,2024-04-30_10h48.23.964,gca_discrimination2,2022.2.4,144.0322401767772,
positions.xlsx,stimuli.xlsx,test.xlsx,stimuli/Test1.png,stimuli/Test2.png,stimuli/Social2.png,stimuli/Social1.png,stimuli/Nonsocial2.png,stimuli/Nonsocial1.png,stimuli/Social4.png,stimuli/Social3.png,stimuli/Nonsocial4.png,stimuli/Nonsocial3.png,"(-0.7, 0.5)",test1,"(0.7, -0.5)",test1,0,0,0,0,0,9,9,0,,,,,,102.37508049999997,l,0.22344699999996465,correct,,21,B,2024-04-30_10h48.23.964,gca_discrimination2,2022.2.4,144.0322401767772,
positions.xlsx,stimuli.xlsx,test.xlsx,stimuli/Test1.png,stimuli/Test2.png,stimuli/Social2.png,stimuli/Social1.png,stimuli/Nonsocial2.png,stimuli/Nonsocial1.png,stimuli/Social4.png,stimuli/Social3.png,stimuli/Nonsocial4.png,stimuli/Nonsocial3.png,"(0.7, 0.5)",cs_pos_s,"(-0.7, -0.5)",cs_neg_s_new,0,0,0,0,,,,,0,0,0,8,,129.8391984,ä,1.0878607000000784,correct,105.06246840000006,21,B,2024-04-30_10h48.23.964,gca_discrimination2,2022.2.4,144.0322401767772,
positions.xlsx,stimuli.xlsx,test.xlsx,stimuli/Test1.png,stimuli/Test2.png,stimuli/Social2.png,stimuli/Social1.png,stimuli/Nonsocial2.png,stimuli/Nonsocial1.png,stimuli/Social4.png,stimuli/Social3.png,stimuli/Nonsocial4.png,stimuli/Nonsocial3.png,"(0.7, -0.5)",cs_neg_s,"(0.7, 0.5)",cs_neg_s,0,0,0,0,,,,,0,1,1,52,,133.3043397,ä,0.6059874000000036,wrong,,21,B,2024-04-30_10h48.23.964,gca_discrimination2,2022.2.4,144.0322401767772,
positions.xlsx,stimuli.xlsx,test.xlsx,stimuli/Test1.png,stimuli/Test2.png,stimuli/Social2.png,stimuli/Social1.png,stimuli/Nonsocial2.png,stimuli/Nonsocial1.png,stimuli/Social4.png,stimuli/Social3.png,stimuli/Nonsocial4.png,stimuli/Nonsocial3.png,"(-0.7, -0.5)",cs_pos_s_new,"(0.7, -0.5)",cs_neg_s,0,0,0,0,,,,,0,2,2,22,,136.42229680000003,ä,0.6565615000000662,correct,,21,B,2024-04-30_10h48.23.964,gca_discrimination2,2022.2.4,144.0322401767772,
positions.xlsx,stimuli.xlsx,test.xlsx,stimuli/Test1.png,stimuli/Test2.png,stimuli/Social2.png,stimuli/Social1.png,stimuli/Nonsocial2.png,stimuli/Nonsocial1.png,stimuli/Social4.png,stimuli/Social3.png,stimuli/Nonsocial4.png,stimuli/Nonsocial3.png,"(-0.7, 0.5)",cs_neg_ns,"(0.7, 0.5)",cs_pos_ns,0,0,0,0,,,,,0,3,3,33,,139.07498069999997,ä,0.6273295999999391,correct,,21,B,2024-04-30_10h48.23.964,gca_discrimination2,2022.2.4,144.0322401767772,
positions.xlsx,stimuli.xlsx,test.xlsx,stimuli/Test1.png,stimuli/Test2.png,stimuli/Social2.png,stimuli/Social1.png,stimuli/Nonsocial2.png,stimuli/Nonsocial1.png,stimuli/Social4.png,stimuli/Social3.png,stimuli/Nonsocial4.png,stimuli/Nonsocial3.png,"(-0.7, 0.5)",cs_neg_ns_new,"(-0.7, -0.5)",cs_neg_ns_new,0,0,0,0,,,,,0,4,4,72,,141.84571619999997,l,0.4727048999999397,correct,,21,B,2024-04-30_10h48.23.964,gca_discrimination2,2022.2.4,144.0322401767772,
positions.xlsx,stimuli.xlsx,test.xlsx,stimuli/Test1.png,stimuli/Test2.png,stimuli/Social2.png,stimuli/Social1.png,stimuli/Nonsocial2.png,stimuli/Nonsocial1.png,stimuli/Social4.png,stimuli/Social3.png,stimuli/Nonsocial4.png,stimuli/Nonsocial3.png,"(-0.7, 0.5)",cs_pos_ns_new,"(0.7, 0.5)",cs_pos_ns_new,0,0,0,0,,,,,0,5,5,94,,144.28997030000005,l,0.4203621999999996,correct,,21,B,2024-04-30_10h48.23.964,gca_discrimination2,2022.2.4,144.0322401767772,
positions.xlsx,stimuli.xlsx,test.xlsx,stimuli/Test1.png,stimuli/Test2.png,stimuli/Social2.png,stimuli/Social1.png,stimuli/Nonsocial2.png,stimuli/Nonsocial1.png,stimuli/Social4.png,stimuli/Social3.png,stimuli/Nonsocial4.png,stimuli/Nonsocial3.png,"(-0.7, 0.5)",cs_pos_s,"(0.7, -0.5)",cs_pos_s_new,0,0,0,0,,,,,0,6,6,23,,147.03298760000007,ä,0.46181300000000647,correct,,21,B,2024-04-30_10h48.23.964,gca_discrimination2,2022.2.4,144.0322401767772,
positions.xlsx,stimuli.xlsx,test.xlsx,stimuli/Test1.png,stimuli/Test2.png,stimuli/Social2.png,stimuli/Social1.png,stimuli/Nonsocial2.png,stimuli/Nonsocial1.png,stimuli/Social4.png,stimuli/Social3.png,stimuli/Nonsocial4.png,stimuli/Nonsocial3.png,"(-0.7, -0.5)",cs_neg_ns,"(0.7, 0.5)",cs_neg_ns,0,0,0,0,,,,,0,7,7,85,,149.92867969999998,l,1.1498852999999372,correct,,21,B,2024-04-30_10h48.23.964,gca_discrimination2,2022.2.4,144.0322401767772,
positions.xlsx,stimuli.xlsx,test.xlsx,stimuli/Test1.png,stimuli/Test2.png,stimuli/Social2.png,stimuli/Social1.png,stimuli/Nonsocial2.png,stimuli/Nonsocial1.png,stimuli/Social4.png,stimuli/Social3.png,stimuli/Nonsocial4.png,stimuli/Nonsocial3.png,"(-0.7, -0.5)",cs_neg_ns_new,"(0.7, -0.5)",cs_neg_ns,0,0,0,0,,,,,0,8,8,25,,153.33828019999999,ä,0.5964164000000665,correct,,21,B,2024-04-30_10h48.23.964,gca_discrimination2,2022.2.4,144.0322401767772,
positions.xlsx,stimuli.xlsx,test.xlsx,stimuli/Test1.png,stimuli/Test2.png,stimuli/Social2.png,stimuli/Social1.png,stimuli/Nonsocial2.png,stimuli/Nonsocial1.png,stimuli/Social4.png,stimuli/Social3.png,stimuli/Nonsocial4.png,stimuli/Nonsocial3.png,"(0.7, 0.5)",cs_neg_ns,"(0.7, -0.5)",cs_neg_ns,0,0,0,0,,,,,0,9,9,84,,155.8173382,l,0.7009399999999459,correct,,21,B,2024-04-30_10h48.23.964,gca_discrimination2,2022.2.4,144.0322401767772,
positions.xlsx,stimuli.xlsx,test.xlsx,stimuli/Test1.png,stimuli/Test2.png,stimuli/Social2.png,stimuli/Social1.png,stimuli/Nonsocial2.png,stimuli/Nonsocial1.png,stimuli/Social4.png,stimuli/Social3.png,stimuli/Nonsocial4.png,stimuli/Nonsocial3.png,"(0.7, -0.5)",cs_neg_s_new,"(-0.7, 0.5)",cs_neg_s_new,0,0,0,0,,,,,0,10,10,70,,158.84497780000004,l,1.0502381000000014,correct,,21,B,2024-04-30_10h48.23.964,gca_discrimination2,2022.2.4,144.0322401767772,
positions.xlsx,stimuli.xlsx,test.xlsx,stimuli/Test1.png,stimuli/Test2.png,stimuli/Social2.png,stimuli/Social1.png,stimuli/Nonsocial2.png,stimuli/Nonsocial1.png,stimuli/Social4.png,stimuli/Social3.png,stimuli/Nonsocial4.png,stimuli/Nonsocial3.png,"(0.7, 0.5)",cs_neg_s,"(-0.7, -0.5)",cs_neg_s_new,0,0,0,0,,,,,0,11,11,2,,162.27541310000004,ä,0.4910559000001058,correct,,21,B,2024-04-30_10h48.23.964,gca_discrimination2,2022.2.4,144.0322401767772,
positions.xlsx,stimuli.xlsx,test.xlsx,stimuli/Test1.png,stimuli/Test2.png,stimuli/Social2.png,stimuli/Social1.png,stimuli/Nonsocial2.png,stimuli/Nonsocial1.png,stimuli/Social4.png,stimuli/Social3.png,stimuli/Nonsocial4.png,stimuli/Nonsocial3.png,"(-0.7, -0.5)",cs_neg_ns_new,"(-0.7, 0.5)",cs_neg_ns_new,0,0,0,0,,,,,0,12,12,86,,165.32385740000007,l,0.5872352999999748,correct,,21,B,2024-04-30_10h48.23.964,gca_discrimination2,2022.2.4,144.0322401767772,
positions.xlsx,stimuli.xlsx,test.xlsx,stimuli/Test1.png,stimuli/Test2.png,stimuli/Social2.png,stimuli/Social1.png,stimuli/Nonsocial2.png,stimuli/Nonsocial1.png,stimuli/Social4.png,stimuli/Social3.png,stimuli/Nonsocial4.png,stimuli/Nonsocial3.png,"(0.7, -0.5)",cs_pos_s_new,"(-0.7, 0.5)",cs_pos_s,0,0,0,0,,,,,0,13,13,12,,168.15016709999998,ä,0.7527080999999498,correct,,21,B,2024-04-30_10h48.23.964,gca_discrimination2,2022.2.4,144.0322401767772,
positions.xlsx,stimuli.xlsx,test.xlsx,stimuli/Test1.png,stimuli/Test2.png,stimuli/Social2.png,stimuli/Social1.png,stimuli/Nonsocial2.png,stimuli/Nonsocial1.png,stimuli/Social4.png,stimuli/Social3.png,stimuli/Nonsocial4.png,stimuli/Nonsocial3.png,"(-0.7, 0.5)",cs_pos_s,"(-0.7, -0.5)",cs_pos_s,0,0,0,0,,,,,0,14,14,67,,170.837496,l,0.5531830999999556,correct,,21,B,2024-04-30_10h48.23.964,gca_discrimination2,2022.2.4,144.0322401767772,
positions.xlsx,stimuli.xlsx,test.xlsx,stimuli/Test1.png,stimuli/Test2.png,stimuli/Social2.png,stimuli/Social1.png,stimuli/Nonsocial2.png,stimuli/Nonsocial1.png,stimuli/Social4.png,stimuli/Social3.png,stimuli/Nonsocial4.png,stimuli/Nonsocial3.png,"(0.7, -0.5)",cs_pos_ns,"(0.7, 0.5)",cs_pos_ns,0,0,0,0,,,,,0,15,15,76,,173.74714100000006,l,0.4752225999999382,correct,,21,B,2024-04-30_10h48.23.964,gca_discrimination2,2022.2.4,144.0322401767772,
positions.xlsx,stimuli.xlsx,test.xlsx,stimuli/Test1.png,stimuli/Test2.png,stimuli/Social2.png,stimuli/Social1.png,stimuli/Nonsocial2.png,stimuli/Nonsocial1.png,stimuli/Social4.png,stimuli/Social3.png,stimuli/Nonsocial4.png,stimuli/Nonsocial3.png,"(0.7, 0.5)",cs_pos_ns,"(-0.7, -0.5)",cs_pos_ns_new,0,0,0,0,,,,,0,16,16,39,,176.92060090000007,ä,0.5181291999999758,correct,,21,B,2024-04-30_10h48.23.964,gca_discrimination2,2022.2.4,144.0322401767772,
positions.xlsx,stimuli.xlsx,test.xlsx,stimuli/Test1.png,stimuli/Test2.png,stimuli/Social2.png,stimuli/Social1.png,stimuli/Nonsocial2.png,stimuli/Nonsocial1.png,stimuli/Social4.png,stimuli/Social3.png,stimuli/Nonsocial4.png,stimuli/Nonsocial3.png,"(-0.7, -0.5)",cs_neg_s,"(0.7, 0.5)",cs_pos_s,0,0,0,0,,,,,0,17,17,5,,179.50389459999997,ä,1.1587253999999803,correct,,21,B,2024-04-30_10h48.23.964,gca_discrimination2,2022.2.4,144.0322401767772,
positions.xlsx,stimuli.xlsx,test.xlsx,stimuli/Test1.png,stimuli/Test2.png,stimuli/Social2.png,stimuli/Social1.png,stimuli/Nonsocial2.png,stimuli/Nonsocial1.png,stimuli/Social4.png,stimuli/Social3.png,stimuli/Nonsocial4.png,stimuli/Nonsocial3.png,"(-0.7, -0.5)",cs_neg_ns,"(-0.7, 0.5)",cs_neg_ns,0,0,0,0,,,,,0,18,18,81,,183.15647420000005,l,0.9310816999999361,correct,,21,B,2024-04-30_10h48.23.964,gca_discrimination2,2022.2.4,144.0322401767772,
positions.xlsx,stimuli.xlsx,test.xlsx,stimuli/Test1.png,stimuli/Test2.png,stimuli/Social2.png,stimuli/Social1.png,stimuli/Nonsocial2.png,stimuli/Nonsocial1.png,stimuli/Social4.png,stimuli/Social3.png,stimuli/Nonsocial4.png,stimuli/Nonsocial3.png,"(-0.7, -0.5)",cs_pos_s_new,"(0.7, -0.5)",cs_pos_s_new,0,0,0,0,,,,,0,19,19,68,,186.41329900000005,l,0.9294976999999562,correct,,21,B,2024-04-30_10h48.23.964,gca_discrimination2,2022.2.4,144.0322401767772,
positions.xlsx,stimuli.xlsx,test.xlsx,stimuli/Test1.png,stimuli/Test2.png,stimuli/Social2.png,stimuli/Social1.png,stimuli/Nonsocial2.png,stimuli/Nonsocial1.png,stimuli/Social4.png,stimuli/Social3.png,stimuli/Nonsocial4.png,stimuli/Nonsocial3.png,"(0.7, 0.5)",cs_pos_s_new,"(-0.7, 0.5)",cs_pos_s_new,0,0,0,0,,,,,0,20,20,66,,190.07981330000007,l,0.8790883000000349,correct,,21,B,2024-04-30_10h48.23.964,gca_discrimination2,2022.2.4,144.0322401767772,
positions.xlsx,stimuli.xlsx,test.xlsx,stimuli/Test1.png,stimuli/Test2.png,stimuli/Social2.png,stimuli/Social1.png,stimuli/Nonsocial2.png,stimuli/Nonsocial1.png,stimuli/Social4.png,stimuli/Social3.png,stimuli/Nonsocial4.png,stimuli/Nonsocial3.png,"(-0.7, 0.5)",cs_pos_ns,"(0.7, 0.5)",cs_neg_ns_new,0,0,0,0,,,,,0,21,21,43,,193.3783075,ä,0.7483227999999826,correct,,21,B,2024-04-30_10h48.23.964,gca_discrimination2,2022.2.4,144.0322401767772,
positions.xlsx,stimuli.xlsx,test.xlsx,stimuli/Test1.png,stimuli/Test2.png,stimuli/Social2.png,stimuli/Social1.png,stimuli/Nonsocial2.png,stimuli/Nonsocial1.png,stimuli/Social4.png,stimuli/Social3.png,stimuli/Nonsocial4.png,stimuli/Nonsocial3.png,"(0.7, -0.5)",cs_pos_s,"(-0.7, -0.5)",cs_pos_s,0,0,0,0,,,,,0,22,22,59,,196.18368580000003,l,0.7912622000001193,correct,,21,B,2024-04-30_10h48.23.964,gca_discrimination2,2022.2.4,144.0322401767772,
positions.xlsx,stimuli.xlsx,test.xlsx,stimuli/Test1.png,stimuli/Test2.png,stimuli/Social2.png,stimuli/Social1.png,stimuli/Nonsocial2.png,stimuli/Nonsocial1.png,stimuli/Social4.png,stimuli/Social3.png,stimuli/Nonsocial4.png,stimuli/Nonsocial3.png,"(0.7, -0.5)",cs_pos_ns,"(0.7, 0.5)",cs_neg_ns_new,0,0,0,0,,,,,0,23,23,35,,199.30861659999994,ä,1.178324400000065,correct,,21,B,2024-04-30_10h48.23.964,gca_discrimination2,2022.2.4,144.0322401767772,
positions.xlsx,stimuli.xlsx,test.xlsx,stimuli/Test1.png,stimuli/Test2.png,stimuli/Social2.png,stimuli/Social1.png,stimuli/Nonsocial2.png,stimuli/Nonsocial1.png,stimuli/Social4.png,stimuli/Social3.png,stimuli/Nonsocial4.png,stimuli/Nonsocial3.png,"(0.7, 0.5)",cs_neg_ns_new,"(-0.7, 0.5)",cs_neg_ns,0,0,0,0,,,,,0,24,24,26,,202.38485720000006,l,0.7340944000000036,wrong,,21,B,2024-04-30_10h48.23.964,gca_discrimination2,2022.2.4,144.0322401767772,
positions.xlsx,stimuli.xlsx,test.xlsx,stimuli/Test1.png,stimuli/Test2.png,stimuli/Social2.png,stimuli/Social1.png,stimuli/Nonsocial2.png,stimuli/Nonsocial1.png,stimuli/Social4.png,stimuli/Social3.png,stimuli/Nonsocial4.png,stimuli/Nonsocial3.png,"(0.7, -0.5)",cs_pos_s_new,"(-0.7, 0.5)",cs_neg_s_new,0,0,0,0,,,,,0,25,25,1,,205.47503510000013,ä,1.2276154000001043,correct,,21,B,2024-04-30_10h48.23.964,gca_discrimination2,2022.2.4,144.0322401767772,
positions.xlsx,stimuli.xlsx,test.xlsx,stimuli/Test1.png,stimuli/Test2.png,stimuli/Social2.png,stimuli/Social1.png,stimuli/Nonsocial2.png,stimuli/Nonsocial1.png,stimuli/Social4.png,stimuli/Social3.png,stimuli/Nonsocial4.png,stimuli/Nonsocial3.png,"(0.7, 0.5)",cs_neg_ns,"(-0.7, 0.5)",cs_pos_ns_new,0,0,0,0,,,,,0,26,26,31,,209.49569439999993,l,1.0229304000001775,wrong,,21,B,2024-04-30_10h48.23.964,gca_discrimination2,2022.2.4,144.0322401767772,
positions.xlsx,stimuli.xlsx,test.xlsx,stimuli/Test1.png,stimuli/Test2.png,stimuli/Social2.png,stimuli/Social1.png,stimuli/Nonsocial2.png,stimuli/Nonsocial1.png,stimuli/Social4.png,stimuli/Social3.png,stimuli/Nonsocial4.png,stimuli/Nonsocial3.png,"(-0.7, 0.5)",cs_pos_ns,"(0.7, 0.5)",cs_neg_ns,0,0,0,0,,,,,0,27,27,24,,213.32887399999993,ä,0.4787579999999707,correct,,21,B,2024-04-30_10h48.23.964,gca_discrimination2,2022.2.4,144.0322401767772,
positions.xlsx,stimuli.xlsx,test.xlsx,stimuli/Test1.png,stimuli/Test2.png,stimuli/Social2.png,stimuli/Social1.png,stimuli/Nonsocial2.png,stimuli/Nonsocial1.png,stimuli/Social4.png,stimuli/Social3.png,stimuli/Nonsocial4.png,stimuli/Nonsocial3.png,"(-0.7, -0.5)",cs_neg_s_new,"(0.7, -0.5)",cs_neg_s_new,0,0,0,0,,,,,0,28,28,71,,215.87040689999992,l,0.5293421000001217,correct,,21,B,2024-04-30_10h48.23.964,gca_discrimination2,2022.2.4,144.0322401767772,
positions.xlsx,stimuli.xlsx,test.xlsx,stimuli/Test1.png,stimuli/Test2.png,stimuli/Social2.png,stimuli/Social1.png,stimuli/Nonsocial2.png,stimuli/Nonsocial1.png,stimuli/Social4.png,stimuli/Social3.png,stimuli/Nonsocial4.png,stimuli/Nonsocial3.png,"(0.7, 0.5)",cs_neg_s,"(0.7, -0.5)",cs_pos_s,0,0,0,0,,,,,0,29,29,10,,218.28699640000002,ä,1.1366044000001239,correct,,21,B,2024-04-30_10h48.23.964,gca_discrimination2,2022.2.4,144.0322401767772,
positions.xlsx,stimuli.xlsx,test.xlsx,stimuli/Test1.png,stimuli/Test2.png,stimuli/Social2.png,stimuli/Social1.png,stimuli/Nonsocial2.png,stimuli/Nonsocial1.png,stimuli/Social4.png,stimuli/Social3.png,stimuli/Nonsocial4.png,stimuli/Nonsocial3.png,"(-0.7, 0.5)",cs_neg_s_new,"(0.7, -0.5)",cs_pos_s_new,0,0,0,0,,,,,0,30,30,15,,221.4882189000001,ä,0.4466827999999623,correct,,21,B,2024-04-30_10h48.23.964,gca_discrimination2,2022.2.4,144.0322401767772,
positions.xlsx,stimuli.xlsx,test.xlsx,stimuli/Test1.png,stimuli/Test2.png,stimuli/Social2.png,stimuli/Social1.png,stimuli/Nonsocial2.png,stimuli/Nonsocial1.png,stimuli/Social4.png,stimuli/Social3.png,stimuli/Nonsocial4.png,stimuli/Nonsocial3.png,"(0.7, -0.5)",cs_pos_s,"(-0.7, 0.5)",cs_pos_s,0,0,0,0,,,,,0,31,31,65,,223.94647220000013,l,0.5964375000000928,correct,,21,B,2024-04-30_10h48.23.964,gca_discrimination2,2022.2.4,144.0322401767772,
positions.xlsx,stimuli.xlsx,test.xlsx,stimuli/Test1.png,stimuli/Test2.png,stimuli/Social2.png,stimuli/Social1.png,stimuli/Nonsocial2.png,stimuli/Nonsocial1.png,stimuli/Social4.png,stimuli/Social3.png,stimuli/Nonsocial4.png,stimuli/Nonsocial3.png,"(-0.7, 0.5)",cs_neg_s,"(0.7, -0.5)",cs_pos_s,0,0,0,0,,,,,0,32,32,16,,227.20328699999993,ä,1.1083165000000008,correct,,21,B,2024-04-30_10h48.23.964,gca_discrimination2,2022.2.4,144.0322401767772,
positions.xlsx,stimuli.xlsx,test.xlsx,stimuli/Test1.png,stimuli/Test2.png,stimuli/Social2.png,stimuli/Social1.png,stimuli/Nonsocial2.png,stimuli/Nonsocial1.png,stimuli/Social4.png,stimuli/Social3.png,stimuli/Nonsocial4.png,stimuli/Nonsocial3.png,"(-0.7, 0.5)",cs_pos_s,"(0.7, -0.5)",cs_pos_s,0,0,0,0,,,,,0,33,33,63,,230.89062679999995,l,0.4043819999999414,correct,,21,B,2024-04-30_10h48.23.964,gca_discrimination2,2022.2.4,144.0322401767772,
positions.xlsx,stimuli.xlsx,test.xlsx,stimuli/Test1.png,stimuli/Test2.png,stimuli/Social2.png,stimuli/Social1.png,stimuli/Nonsocial2.png,stimuli/Nonsocial1.png,stimuli/Social4.png,stimuli/Social3.png,stimuli/Nonsocial4.png,stimuli/Nonsocial3.png,"(-0.7, -0.5)",cs_pos_ns_new,"(0.7, -0.5)",cs_pos_ns_new,0,0,0,0,,,,,0,34,34,77,,233.97380499999997,l,0.473656500000061,correct,,21,B,2024-04-30_10h48.23.964,gca_discrimination2,2022.2.4,144.0322401767772,
positions.xlsx,stimuli.xlsx,test.xlsx,stimuli/Test1.png,stimuli/Test2.png,stimuli/Social2.png,stimuli/Social1.png,stimuli/Nonsocial2.png,stimuli/Nonsocial1.png,stimuli/Social4.png,stimuli/Social3.png,stimuli/Nonsocial4.png,stimuli/Nonsocial3.png,"(0.7, 0.5)",cs_pos_s_new,"(-0.7, -0.5)",cs_pos_s_new,0,0,0,0,,,,,0,35,35,64,,236.86954550000007,l,0.5695894000000408,correct,,21,B,2024-04-30_10h48.23.964,gca_discrimination2,2022.2.4,144.0322401767772,
positions.xlsx,stimuli.xlsx,test.xlsx,stimuli/Test1.png,stimuli/Test2.png,stimuli/Social2.png,stimuli/Social1.png,stimuli/Nonsocial2.png,stimuli/Nonsocial1.png,stimuli/Social4.png,stimuli/Social3.png,stimuli/Nonsocial4.png,stimuli/Nonsocial3.png,"(-0.7, 0.5)",cs_neg_ns_new,"(0.7, 0.5)",cs_neg_ns_new,0,0,0,0,,,,,0,36,36,90,,239.42500780000012,l,1.005686100000048,correct,,21,B,2024-04-30_10h48.23.964,gca_discrimination2,2022.2.4,144.0322401767772,
positions.xlsx,stimuli.xlsx,test.xlsx,stimuli/Test1.png,stimuli/Test2.png,stimuli/Social2.png,stimuli/Social1.png,stimuli/Nonsocial2.png,stimuli/Nonsocial1.png,stimuli/Social4.png,stimuli/Social3.png,stimuli/Nonsocial4.png,stimuli/Nonsocial3.png,"(0.7, 0.5)",cs_pos_s,"(-0.7, 0.5)",cs_pos_s_new,0,0,0,0,,,,,0,37,37,6,,242.32073700000012,ä,0.9894702999999936,correct,,21,B,2024-04-30_10h48.23.964,gca_discrimination2,2022.2.4,144.0322401767772,
positions.xlsx,stimuli.xlsx,test.xlsx,stimuli/Test1.png,stimuli/Test2.png,stimuli/Social2.png,stimuli/Social1.png,stimuli/Nonsocial2.png,stimuli/Nonsocial1.png,stimuli/Social4.png,stimuli/Social3.png,stimuli/Nonsocial4.png,stimuli/Nonsocial3.png,"(-0.7, 0.5)",cs_neg_ns_new,"(0.7, -0.5)",cs_neg_ns_new,0,0,0,0,,,,,0,38,38,91,,245.9872489999999,l,1.036287800000082,correct,,21,B,2024-04-30_10h48.23.964,gca_discrimination2,2022.2.4,144.0322401767772,
positions.xlsx,stimuli.xlsx,test.xlsx,stimuli/Test1.png,stimuli/Test2.png,stimuli/Social2.png,stimuli/Social1.png,stimuli/Nonsocial2.png,stimuli/Nonsocial1.png,stimuli/Social4.png,stimuli/Social3.png,stimuli/Nonsocial4.png,stimuli/Nonsocial3.png,"(-0.7, 0.5)",cs_neg_ns_new,"(0.7, -0.5)",cs_pos_ns_new,0,0,0,0,,,,,0,39,39,34,,249.3551612,ä,0.6275533000000451,correct,,21,B,2024-04-30_10h48.23.964,gca_discrimination2,2022.2.4,144.0322401767772,
positions.xlsx,stimuli.xlsx,test.xlsx,stimuli/Test1.png,stimuli/Test2.png,stimuli/Social2.png,stimuli/Social1.png,stimuli/Nonsocial2.png,stimuli/Nonsocial1.png,stimuli/Social4.png,stimuli/Social3.png,stimuli/Nonsocial4.png,stimuli/Nonsocial3.png,"(0.7, -0.5)",cs_neg_s,"(-0.7, 0.5)",cs_neg_s,0,0,0,0,,,,,0,40,40,56,,251.8828436,l,0.7077288999998927,correct,,21,B,2024-04-30_10h48.23.964,gca_discrimination2,2022.2.4,144.0322401767772,
positions.xlsx,stimuli.xlsx,test.xlsx,stimuli/Test1.png,stimuli/Test2.png,stimuli/Social2.png,stimuli/Social1.png,stimuli/Nonsocial2.png,stimuli/Nonsocial1.png,stimuli/Social4.png,stimuli/Social3.png,stimuli/Nonsocial4.png,stimuli/Nonsocial3.png,"(0.7, 0.5)",cs_neg_s,"(-0.7, 0.5)",cs_neg_s,0,0,0,0,,,,,0,41,41,57,,254.99381690000007,l,0.452842099999998,correct,,21,B,2024-04-30_10h48.23.964,gca_discrimination2,2022.2.4,144.0322401767772,
positions.xlsx,stimuli.xlsx,test.xlsx,stimuli/Test1.png,stimuli/Test2.png,stimuli/Social2.png,stimuli/Social1.png,stimuli/Nonsocial2.png,stimuli/Nonsocial1.png,stimuli/Social4.png,stimuli/Social3.png,stimuli/Nonsocial4.png,stimuli/Nonsocial3.png,"(0.7, 0.5)",cs_pos_ns_new,"(-0.7, -0.5)",cs_neg_ns,0,0,0,0,,,,,0,42,42,42,,257.84091679999995,ä,0.765711999999894,correct,,21,B,2024-04-30_10h48.23.964,gca_discrimination2,2022.2.4,144.0322401767772,
positions.xlsx,stimuli.xlsx,test.xlsx,stimuli/Test1.png,stimuli/Test2.png,stimuli/Social2.png,stimuli/Social1.png,stimuli/Nonsocial2.png,stimuli/Nonsocial1.png,stimuli/Social4.png,stimuli/Social3.png,stimuli/Nonsocial4.png,stimuli/Nonsocial3.png,"(0.7, -0.5)",cs_neg_ns,"(-0.7, 0.5)",cs_pos_ns,0,0,0,0,,,,,0,43,43,46,,260.8894065999999,l,0.796910200000184,wrong,,21,B,2024-04-30_10h48.23.964,gca_discrimination2,2022.2.4,144.0322401767772,
positions.xlsx,stimuli.xlsx,test.xlsx,stimuli/Test1.png,stimuli/Test2.png,stimuli/Social2.png,stimuli/Social1.png,stimuli/Nonsocial2.png,stimuli/Nonsocial1.png,stimuli/Social4.png,stimuli/Social3.png,stimuli/Nonsocial4.png,stimuli/Nonsocial3.png,"(-0.7, -0.5)",cs_neg_s,"(-0.7, 0.5)",cs_neg_s,0,0,0,0,,,,,0,44,44,53,,264.36841889999994,l,0.5587349000002177,correct,,21,B,2024-04-30_10h48.23.964,gca_discrimination2,2022.2.4,144.0322401767772,
positions.xlsx,stimuli.xlsx,test.xlsx,stimuli/Test1.png,stimuli/Test2.png,stimuli/Social2.png,stimuli/Social1.png,stimuli/Nonsocial2.png,stimuli/Nonsocial1.png,stimuli/Social4.png,stimuli/Social3.png,stimuli/Nonsocial4.png,stimuli/Nonsocial3.png,"(0.7, -0.5)",cs_pos_ns,"(-0.7, -0.5)",cs_pos_ns_new,0,0,0,0,,,,,0,45,45,29,,266.8058192,ä,0.46543670000005477,correct,,21,B,2024-04-30_10h48.23.964,gca_discrimination2,2022.2.4,144.0322401767772,
positions.xlsx,stimuli.xlsx,test.xlsx,stimuli/Test1.png,stimuli/Test2.png,stimuli/Social2.png,stimuli/Social1.png,stimuli/Nonsocial2.png,stimuli/Nonsocial1.png,stimuli/Social4.png,stimuli/Social3.png,stimuli/Nonsocial4.png,stimuli/Nonsocial3.png,"(-0.7, -0.5)",cs_pos_s,"(-0.7, 0.5)",cs_pos_s_new,0,0,0,0,,,,,0,46,46,7,,270.00014279999994,ä,0.8463716000001114,correct,,21,B,2024-04-30_10h48.23.964,gca_discrimination2,2022.2.4,144.0322401767772,
positions.xlsx,stimuli.xlsx,test.xlsx,stimuli/Test1.png,stimuli/Test2.png,stimuli/Social2.png,stimuli/Social1.png,stimuli/Nonsocial2.png,stimuli/Nonsocial1.png,stimuli/Social4.png,stimuli/Social3.png,stimuli/Nonsocial4.png,stimuli/Nonsocial3.png,"(-0.7, 0.5)",cs_neg_s_new,"(-0.7, -0.5)",cs_neg_s_new,0,0,0,0,,,,,0,47,47,69,,273.0625063000001,l,0.7046258999998827,correct,,21,B,2024-04-30_10h48.23.964,gca_discrimination2,2022.2.4,144.0322401767772,
positions.xlsx,stimuli.xlsx,test.xlsx,stimuli/Test1.png,stimuli/Test2.png,stimuli/Social2.png,stimuli/Social1.png,stimuli/Nonsocial2.png,stimuli/Nonsocial1.png,stimuli/Social4.png,stimuli/Social3.png,stimuli/Nonsocial4.png,stimuli/Nonsocial3.png,"(-0.7, -0.5)",cs_neg_ns,"(0.7, -0.5)",cs_neg_ns,0,0,0,0,,,,,0,48,48,79,,276.5831910999999,l,1.1510372000000189,correct,,21,B,2024-04-30_10h48.23.964,gca_discrimination2,2022.2.4,144.0322401767772,
positions.xlsx,stimuli.xlsx,test.xlsx,stimuli/Test1.png,stimuli/Test2.png,stimuli/Social2.png,stimuli/Social1.png,stimuli/Nonsocial2.png,stimuli/Nonsocial1.png,stimuli/Social4.png,stimuli/Social3.png,stimuli/Nonsocial4.png,stimuli/Nonsocial3.png,"(-0.7, -0.5)",cs_pos_s_new,"(0.7, 0.5)",cs_pos_s_new,0,0,0,0,,,,,0,49,49,48,,279.8886142,l,0.9739564000001337,correct,,21,B,2024-04-30_10h48.23.964,gca_discrimination2,2022.2.4,144.0322401767772,
positions.xlsx,stimuli.xlsx,test.xlsx,stimuli/Test1.png,stimuli/Test2.png,stimuli/Social2.png,stimuli/Social1.png,stimuli/Nonsocial2.png,stimuli/Nonsocial1.png,stimuli/Social4.png,stimuli/Social3.png,stimuli/Nonsocial4.png,stimuli/Nonsocial3.png,"(-0.7, -0.5)",cs_pos_ns_new,"(0.7, 0.5)",cs_neg_ns,0,0,0,0,,,,,0,50,50,32,,283.24264660000006,ä,0.660894399999961,correct,,21,B,2024-04-30_10h48.23.964,gca_discrimination2,2022.2.4,144.0322401767772,
positions.xlsx,stimuli.xlsx,test.xlsx,stimuli/Test1.png,stimuli/Test2.png,stimuli/Social2.png,stimuli/Social1.png,stimuli/Nonsocial2.png,stimuli/Nonsocial1.png,stimuli/Social4.png,stimuli/Social3.png,stimuli/Nonsocial4.png,stimuli/Nonsocial3.png,"(0.7, 0.5)",cs_neg_ns_new,"(0.7, -0.5)",cs_neg_ns,0,0,0,0,,,,,0,51,51,27,,286.7147304000001,l,0.6606601999999384,wrong,,21,B,2024-04-30_10h48.23.964,gca_discrimination2,2022.2.4,144.0322401767772,
positions.xlsx,stimuli.xlsx,test.xlsx,stimuli/Test1.png,stimuli/Test2.png,stimuli/Social2.png,stimuli/Social1.png,stimuli/Nonsocial2.png,stimuli/Nonsocial1.png,stimuli/Social4.png,stimuli/Social3.png,stimuli/Nonsocial4.png,stimuli/Nonsocial3.png,"(0.7, 0.5)",cs_neg_ns_new,"(-0.7, -0.5)",cs_neg_ns,0,0,0,0,,,,,0,52,52,38,,289.33964189999995,l,1.115393599999834,wrong,,21,B,2024-04-30_10h48.23.964,gca_discrimination2,2022.2.4,144.0322401767772,
positions.xlsx,stimuli.xlsx,test.xlsx,stimuli/Test1.png,stimuli/Test2.png,stimuli/Social2.png,stimuli/Social1.png,stimuli/Nonsocial2.png,stimuli/Nonsocial1.png,stimuli/Social4.png,stimuli/Social3.png,stimuli/Nonsocial4.png,stimuli/Nonsocial3.png,"(0.7, -0.5)",cs_neg_s_new,"(-0.7, 0.5)",cs_pos_s_new,0,0,0,0,,,,,0,53,53,17,,292.9089256000001,ä,0.3376193000001422,correct,,21,B,2024-04-30_10h48.23.964,gca_discrimination2,2022.2.4,144.0322401767772,
positions.xlsx,stimuli.xlsx,test.xlsx,stimuli/Test1.png,stimuli/Test2.png,stimuli/Social2.png,stimuli/Social1.png,stimuli/Nonsocial2.png,stimuli/Nonsocial1.png,stimuli/Social4.png,stimuli/Social3.png,stimuli/Nonsocial4.png,stimuli/Nonsocial3.png,"(-0.7, 0.5)",cs_pos_ns_new,"(-0.7, -0.5)",cs_pos_ns_new,0,0,0,0,,,,,0,54,54,75,,295.9643474999999,l,0.5864177000000836,correct,,21,B,2024-04-30_10h48.23.964,gca_discrimination2,2022.2.4,144.0322401767772,
positions.xlsx,stimuli.xlsx,test.xlsx,stimuli/Test1.png,stimuli/Test2.png,stimuli/Social2.png,stimuli/Social1.png,stimuli/Nonsocial2.png,stimuli/Nonsocial1.png,stimuli/Social4.png,stimuli/Social3.png,stimuli/Nonsocial4.png,stimuli/Nonsocial3.png,"(-0.7, -0.5)",cs_pos_s,"(0.7, -0.5)",cs_pos_s,0,0,0,0,,,,,0,55,55,54,,298.3948097000001,l,0.4600731000000451,correct,,21,B,2024-04-30_10h48.23.964,gca_discrimination2,2022.2.4,144.0322401767772,
positions.xlsx,stimuli.xlsx,test.xlsx,stimuli/Test1.png,stimuli/Test2.png,stimuli/Social2.png,stimuli/Social1.png,stimuli/Nonsocial2.png,stimuli/Nonsocial1.png,stimuli/Social4.png,stimuli/Social3.png,stimuli/Nonsocial4.png,stimuli/Nonsocial3.png,"(0.7, -0.5)",cs_pos_ns_new,"(0.7, 0.5)",cs_neg_ns_new,0,0,0,0,,,,,0,56,56,37,,300.9571975,l,0.569001500000013,wrong,,21,B,2024-04-30_10h48.23.964,gca_discrimination2,2022.2.4,144.0322401767772,
positions.xlsx,stimuli.xlsx,test.xlsx,stimuli/Test1.png,stimuli/Test2.png,stimuli/Social2.png,stimuli/Social1.png,stimuli/Nonsocial2.png,stimuli/Nonsocial1.png,stimuli/Social4.png,stimuli/Social3.png,stimuli/Nonsocial4.png,stimuli/Nonsocial3.png,"(0.7, 0.5)",cs_neg_s,"(-0.7, 0.5)",cs_neg_s_new,0,0,0,0,,,,,0,57,57,11,,303.5612241,ä,0.42974100000014914,correct,,21,B,2024-04-30_10h48.23.964,gca_discrimination2,2022.2.4,144.0322401767772,
positions.xlsx,stimuli.xlsx,test.xlsx,stimuli/Test1.png,stimuli/Test2.png,stimuli/Social2.png,stimuli/Social1.png,stimuli/Nonsocial2.png,stimuli/Nonsocial1.png,stimuli/Social4.png,stimuli/Social3.png,stimuli/Nonsocial4.png,stimuli/Nonsocial3.png,"(0.7, 0.5)",cs_pos_ns,"(-0.7, -0.5)",cs_neg_ns,0,0,0,0,,,,,0,58,58,30,,306.76252179999994,l,1.1800852999999734,wrong,,21,B,2024-04-30_10h48.23.964,gca_discrimination2,2022.2.4,144.0322401767772,
positions.xlsx,stimuli.xlsx,test.xlsx,stimuli/Test1.png,stimuli/Test2.png,stimuli/Social2.png,stimuli/Social1.png,stimuli/Nonsocial2.png,stimuli/Nonsocial1.png,stimuli/Social4.png,stimuli/Social3.png,stimuli/Nonsocial4.png,stimuli/Nonsocial3.png,"(-0.7, 0.5)",cs_neg_ns,"(0.7, -0.5)",cs_pos_ns_new,0,0,0,0,,,,,0,59,59,44,,310.6443287000001,l,1.6026383000000806,wrong,,21,B,2024-04-30_10h48.23.964,gca_discrimination2,2022.2.4,144.0322401767772,
positions.xlsx,stimuli.xlsx,test.xlsx,stimuli/Test1.png,stimuli/Test2.png,stimuli/Social2.png,stimuli/Social1.png,stimuli/Nonsocial2.png,stimuli/Nonsocial1.png,stimuli/Social4.png,stimuli/Social3.png,stimuli/Nonsocial4.png,stimuli/Nonsocial3.png,"(-0.7, 0.5)",cs_neg_s_new,"(0.7, -0.5)",cs_neg_s_new,0,0,0,0,,,,,0,60,60,58,,314.88022480000006,l,0.4065563999999995,correct,,21,B,2024-04-30_10h48.23.964,gca_discrimination2,2022.2.4,144.0322401767772,
positions.xlsx,stimuli.xlsx,test.xlsx,stimuli/Test1.png,stimuli/Test2.png,stimuli/Social2.png,stimuli/Social1.png,stimuli/Nonsocial2.png,stimuli/Nonsocial1.png,stimuli/Social4.png,stimuli/Social3.png,stimuli/Nonsocial4.png,stimuli/Nonsocial3.png,"(-0.7, 0.5)",cs_pos_ns,"(-0.7, -0.5)",cs_neg_ns,0,0,0,0,,,,,0,61,61,41,,317.6370671000001,l,0.570586300000059,wrong,,21,B,2024-04-30_10h48.23.964,gca_discrimination2,2022.2.4,144.0322401767772,
positions.xlsx,stimuli.xlsx,test.xlsx,stimuli/Test1.png,stimuli/Test2.png,stimuli/Social2.png,stimuli/Social1.png,stimuli/Nonsocial2.png,stimuli/Nonsocial1.png,stimuli/Social4.png,stimuli/Social3.png,stimuli/Nonsocial4.png,stimuli/Nonsocial3.png,"(0.7, 0.5)",cs_pos_ns,"(0.7, -0.5)",cs_neg_ns_new,0,0,0,0,,,,,0,62,62,40,,320.97027220000007,ä,0.4768503000000237,correct,,21,B,2024-04-30_10h48.23.964,gca_discrimination2,2022.2.4,144.0322401767772,
positions.xlsx,stimuli.xlsx,test.xlsx,stimuli/Test1.png,stimuli/Test2.png,stimuli/Social2.png,stimuli/Social1.png,stimuli/Nonsocial2.png,stimuli/Nonsocial1.png,stimuli/Social4.png,stimuli/Social3.png,stimuli/Nonsocial4.png,stimuli/Nonsocial3.png,"(0.7, -0.5)",cs_neg_ns,"(-0.7, -0.5)",cs_neg_ns,0,0,0,0,,,,,0,63,63,74,,323.5882124000001,ä,0.5379683999999543,wrong,,21,B,2024-04-30_10h48.23.964,gca_discrimination2,2022.2.4,144.0322401767772,
positions.xlsx,stimuli.xlsx,test.xlsx,stimuli/Test1.png,stimuli/Test2.png,stimuli/Social2.png,stimuli/Social1.png,stimuli/Nonsocial2.png,stimuli/Nonsocial1.png,stimuli/Social4.png,stimuli/Social3.png,stimuli/Nonsocial4.png,stimuli/Nonsocial3.png,"(0.7, 0.5)",cs_neg_s_new,"(0.7, -0.5)",cs_pos_s,0,0,0,0,,,,,0,64,64,19,,326.3867225,ä,0.4610333000000537,correct,,21,B,2024-04-30_10h48.23.964,gca_discrimination2,2022.2.4,144.0322401767772,
positions.xlsx,stimuli.xlsx,test.xlsx,stimuli/Test1.png,stimuli/Test2.png,stimuli/Social2.png,stimuli/Social1.png,stimuli/Nonsocial2.png,stimuli/Nonsocial1.png,stimuli/Social4.png,stimuli/Social3.png,stimuli/Nonsocial4.png,stimuli/Nonsocial3.png,"(-0.7, -0.5)",cs_pos_ns,"(0.7, -0.5)",cs_pos_ns,0,0,0,0,,,,,0,65,65,89,,329.1713228,l,0.8199276000000282,correct,,21,B,2024-04-30_10h48.23.964,gca_discrimination2,2022.2.4,144.0322401767772,
positions.xlsx,stimuli.xlsx,test.xlsx,stimuli/Test1.png,stimuli/Test2.png,stimuli/Social2.png,stimuli/Social1.png,stimuli/Nonsocial2.png,stimuli/Nonsocial1.png,stimuli/Social4.png,stimuli/Social3.png,stimuli/Nonsocial4.png,stimuli/Nonsocial3.png,"(0.7, -0.5)",cs_pos_s_new,"(-0.7, -0.5)",cs_neg_s,0,0,0,0,,,,,0,66,66,14,,332.4142386,ä,1.216704800000116,correct,,21,B,2024-04-30_10h48.23.964,gca_discrimination2,2022.2.4,144.0322401767772,
positions.xlsx,stimuli.xlsx,test.xlsx,stimuli/Test1.png,stimuli/Test2.png,stimuli/Social2.png,stimuli/Social1.png,stimuli/Nonsocial2.png,stimuli/Nonsocial1.png,stimuli/Social4.png,stimuli/Social3.png,stimuli/Nonsocial4.png,stimuli/Nonsocial3.png,"(0.7, 0.5)",cs_pos_s_new,"(-0.7, 0.5)",cs_neg_s,0,0,0,0,,,,,0,67,67,4,,335.6988514000001,ä,1.2272950000001401,correct,,21,B,2024-04-30_10h48.23.964,gca_discrimination2,2022.2.4,144.0322401767772,
positions.xlsx,stimuli.xlsx,test.xlsx,stimuli/Test1.png,stimuli/Test2.png,stimuli/Social2.png,stimuli/Social1.png,stimuli/Nonsocial2.png,stimuli/Nonsocial1.png,stimuli/Social4.png,stimuli/Social3.png,stimuli/Nonsocial4.png,stimuli/Nonsocial3.png,"(-0.7, 0.5)",cs_neg_ns,"(0.7, 0.5)",cs_neg_ns,0,0,0,0,,,,,0,68,68,87,,339.33062430000007,l,0.8289029000000028,correct,,21,B,2024-04-30_10h48.23.964,gca_discrimination2,2022.2.4,144.0322401767772,
positions.xlsx,stimuli.xlsx,test.xlsx,stimuli/Test1.png,stimuli/Test2.png,stimuli/Social2.png,stimuli/Social1.png,stimuli/Nonsocial2.png,stimuli/Nonsocial1.png,stimuli/Social4.png,stimuli/Social3.png,stimuli/Nonsocial4.png,stimuli/Nonsocial3.png,"(-0.7, -0.5)",cs_pos_ns,"(0.7, 0.5)",cs_pos_ns,0,0,0,0,,,,,0,69,69,92,,342.1499626000001,l,0.8085995999999795,correct,,21,B,2024-04-30_10h48.23.964,gca_discrimination2,2022.2.4,144.0322401767772,
positions.xlsx,stimuli.xlsx,test.xlsx,stimuli/Test1.png,stimuli/Test2.png,stimuli/Social2.png,stimuli/Social1.png,stimuli/Nonsocial2.png,stimuli/Nonsocial1.png,stimuli/Social4.png,stimuli/Social3.png,stimuli/Nonsocial4.png,stimuli/Nonsocial3.png,"(0.7, 0.5)",cs_neg_ns_new,"(-0.7, 0.5)",cs_neg_ns_new,0,0,0,0,,,,,0,70,70,83,,345.2887280000001,ä,0.877588299999843,wrong,,21,B,2024-04-30_10h48.23.964,gca_discrimination2,2022.2.4,144.0322401767772,
positions.xlsx,stimuli.xlsx,test.xlsx,stimuli/Test1.png,stimuli/Test2.png,stimuli/Social2.png,stimuli/Social1.png,stimuli/Nonsocial2.png,stimuli/Nonsocial1.png,stimuli/Social4.png,stimuli/Social3.png,stimuli/Nonsocial4.png,stimuli/Nonsocial3.png,"(0.7, 0.5)",cs_pos_s_new,"(0.7, -0.5)",cs_neg_s_new,0,0,0,0,,,,,0,71,71,3,,348.0316759000001,ä,0.6718307999999524,correct,,21,B,2024-04-30_10h48.23.964,gca_discrimination2,2022.2.4,144.0322401767772,
positions.xlsx,stimuli.xlsx,test.xlsx,stimuli/Test1.png,stimuli/Test2.png,stimuli/Social2.png,stimuli/Social1.png,stimuli/Nonsocial2.png,stimuli/Nonsocial1.png,stimuli/Social4.png,stimuli/Social3.png,stimuli/Nonsocial4.png,stimuli/Nonsocial3.png,"(0.7, -0.5)",cs_neg_ns_new,"(-0.7, 0.5)",cs_neg_ns_new,0,0,0,0,,,,,0,72,72,95,,351.1843232,l,0.9659446999999091,correct,,21,B,2024-04-30_10h48.23.964,gca_discrimination2,2022.2.4,144.0322401767772,
positions.xlsx,stimuli.xlsx,test.xlsx,stimuli/Test1.png,stimuli/Test2.png,stimuli/Social2.png,stimuli/Social1.png,stimuli/Nonsocial2.png,stimuli/Nonsocial1.png,stimuli/Social4.png,stimuli/Social3.png,stimuli/Nonsocial4.png,stimuli/Nonsocial3.png,"(0.7, 0.5)",cs_neg_s_new,"(-0.7, -0.5)",cs_neg_s_new,0,0,0,0,,,,,0,73,73,60,,354.43422569999996,l,0.4526877999999215,correct,,21,B,2024-04-30_10h48.23.964,gca_discrimination2,2022.2.4,144.0322401767772,
positions.xlsx,stimuli.xlsx,test.xlsx,stimuli/Test1.png,stimuli/Test2.png,stimuli/Social2.png,stimuli/Social1.png,stimuli/Nonsocial2.png,stimuli/Nonsocial1.png,stimuli/Social4.png,stimuli/Social3.png,stimuli/Nonsocial4.png,stimuli/Nonsocial3.png,"(-0.7, -0.5)",cs_neg_s,"(0.7, -0.5)",cs_pos_s,0,0,0,0,,,,,0,74,74,20,,356.8021044000001,ä,0.788547699999981,correct,,21,B,2024-04-30_10h48.23.964,gca_discrimination2,2022.2.4,144.0322401767772,
positions.xlsx,stimuli.xlsx,test.xlsx,stimuli/Test1.png,stimuli/Test2.png,stimuli/Social2.png,stimuli/Social1.png,stimuli/Nonsocial2.png,stimuli/Nonsocial1.png,stimuli/Social4.png,stimuli/Social3.png,stimuli/Nonsocial4.png,stimuli/Nonsocial3.png,"(0.7, 0.5)",cs_neg_s_new,"(-0.7, -0.5)",cs_pos_s,0,0,0,0,,,,,0,75,75,9,,359.9964555,ä,0.3382670999999391,correct,,21,B,2024-04-30_10h48.23.964,gca_discrimination2,2022.2.4,144.0322401767772,
positions.xlsx,stimuli.xlsx,test.xlsx,stimuli/Test1.png,stimuli/Test2.png,stimuli/Social2.png,stimuli/Social1.png,stimuli/Nonsocial2.png,stimuli/Nonsocial1.png,stimuli/Social4.png,stimuli/Social3.png,stimuli/Nonsocial4.png,stimuli/Nonsocial3.png,"(-0.7, 0.5)",cs_pos_s_new,"(-0.7, -0.5)",cs_pos_s_new,0,0,0,0,,,,,0,76,76,51,,362.57973900000013,l,0.6032803000000513,correct,,21,B,2024-04-30_10h48.23.964,gca_discrimination2,2022.2.4,144.0322401767772,
positions.xlsx,stimuli.xlsx,test.xlsx,stimuli/Test1.png,stimuli/Test2.png,stimuli/Social2.png,stimuli/Social1.png,stimuli/Nonsocial2.png,stimuli/Nonsocial1.png,stimuli/Social4.png,stimuli/Social3.png,stimuli/Nonsocial4.png,stimuli/Nonsocial3.png,"(0.7, -0.5)",cs_neg_s_new,"(-0.7, 0.5)",cs_neg_s,0,0,0,0,,,,,0,77,77,21,,365.0031997,ä,0.979622000000063,correct,,21,B,2024-04-30_10h48.23.964,gca_discrimination2,2022.2.4,144.0322401767772,
positions.xlsx,stimuli.xlsx,test.xlsx,stimuli/Test1.png,stimuli/Test2.png,stimuli/Social2.png,stimuli/Social1.png,stimuli/Nonsocial2.png,stimuli/Nonsocial1.png,stimuli/Social4.png,stimuli/Social3.png,stimuli/Nonsocial4.png,stimuli/Nonsocial3.png,"(0.7, 0.5)",cs_neg_s,"(-0.7, -0.5)",cs_neg_s,0,0,0,0,,,,,0,78,78,61,,368.75304259999996,l,0.7024772999998277,correct,,21,B,2024-04-30_10h48.23.964,gca_discrimination2,2022.2.4,144.0322401767772,
positions.xlsx,stimuli.xlsx,test.xlsx,stimuli/Test1.png,stimuli/Test2.png,stimuli/Social2.png,stimuli/Social1.png,stimuli/Nonsocial2.png,stimuli/Nonsocial1.png,stimuli/Social4.png,stimuli/Social3.png,stimuli/Nonsocial4.png,stimuli/Nonsocial3.png,"(-0.7, -0.5)",cs_neg_s,"(0.7, -0.5)",cs_neg_s_new,0,0,0,0,,,,,0,79,79,18,,372.22509260000004,ä,0.7419714999998632,correct,,21,B,2024-04-30_10h48.23.964,gca_discrimination2,2022.2.4,144.0322401767772,
positions.xlsx,stimuli.xlsx,test.xlsx,stimuli/Test1.png,stimuli/Test2.png,stimuli/Social2.png,stimuli/Social1.png,stimuli/Nonsocial2.png,stimuli/Nonsocial1.png,stimuli/Social4.png,stimuli/Social3.png,stimuli/Nonsocial4.png,stimuli/Nonsocial3.png,"(0.7, 0.5)",cs_neg_ns,"(-0.7, 0.5)",cs_neg_ns,0,0,0,0,,,,,0,80,80,73,,375.6277430000001,None,,no answer,,21,B,2024-04-30_10h48.23.964,gca_discrimination2,2022.2.4,144.0322401767772,
positions.xlsx,stimuli.xlsx,test.xlsx,stimuli/Test1.png,stimuli/Test2.png,stimuli/Social2.png,stimuli/Social1.png,stimuli/Nonsocial2.png,stimuli/Nonsocial1.png,stimuli/Social4.png,stimuli/Social3.png,stimuli/Nonsocial4.png,stimuli/Nonsocial3.png,"(0.7, -0.5)",cs_neg_ns_new,"(-0.7, -0.5)",cs_pos_ns,0,0,0,0,,,,,0,81,81,45,,380.0997876,ä,0.8362343000001147,correct,,21,B,2024-04-30_10h48.23.964,gca_discrimination2,2022.2.4,144.0322401767772,
positions.xlsx,stimuli.xlsx,test.xlsx,stimuli/Test1.png,stimuli/Test2.png,stimuli/Social2.png,stimuli/Social1.png,stimuli/Nonsocial2.png,stimuli/Nonsocial1.png,stimuli/Social4.png,stimuli/Social3.png,stimuli/Nonsocial4.png,stimuli/Nonsocial3.png,"(-0.7, 0.5)",cs_pos_ns,"(0.7, 0.5)",cs_pos_ns,0,0,0,0,,,,,0,82,82,88,,383.13438170000006,l,0.551978500000132,correct,,21,B,2024-04-30_10h48.23.964,gca_discrimination2,2022.2.4,144.0322401767772,
positions.xlsx,stimuli.xlsx,test.xlsx,stimuli/Test1.png,stimuli/Test2.png,stimuli/Social2.png,stimuli/Social1.png,stimuli/Nonsocial2.png,stimuli/Nonsocial1.png,stimuli/Social4.png,stimuli/Social3.png,stimuli/Nonsocial4.png,stimuli/Nonsocial3.png,"(-0.7, 0.5)",cs_neg_ns,"(-0.7, -0.5)",cs_neg_ns,0,0,0,0,,,,,0,83,83,80,,385.6342866000001,l,0.44477290000008907,correct,,21,B,2024-04-30_10h48.23.964,gca_discrimination2,2022.2.4,144.0322401767772,
positions.xlsx,stimuli.xlsx,test.xlsx,stimuli/Test1.png,stimuli/Test2.png,stimuli/Social2.png,stimuli/Social1.png,stimuli/Nonsocial2.png,stimuli/Nonsocial1.png,stimuli/Social4.png,stimuli/Social3.png,stimuli/Nonsocial4.png,stimuli/Nonsocial3.png,"(-0.7, -0.5)",cs_pos_s,"(0.7, -0.5)",cs_pos_s_new,0,0,0,0,,,,,0,84,84,13,,388.2244412000001,ä,0.5423312000000351,correct,,21,B,2024-04-30_10h48.23.964,gca_discrimination2,2022.2.4,144.0322401767772,
positions.xlsx,stimuli.xlsx,test.xlsx,stimuli/Test1.png,stimuli/Test2.png,stimuli/Social2.png,stimuli/Social1.png,stimuli/Nonsocial2.png,stimuli/Nonsocial1.png,stimuli/Social4.png,stimuli/Social3.png,stimuli/Nonsocial4.png,stimuli/Nonsocial3.png,"(-0.7, 0.5)",cs_pos_s_new,"(0.7, -0.5)",cs_pos_s_new,0,0,0,0,,,,,0,85,85,55,,390.6757477,ä,0.955172500000117,wrong,,21,B,2024-04-30_10h48.23.964,gca_discrimination2,2022.2.4,144.0322401767772,
positions.xlsx,stimuli.xlsx,test.xlsx,stimuli/Test1.png,stimuli/Test2.png,stimuli/Social2.png,stimuli/Social1.png,stimuli/Nonsocial2.png,stimuli/Nonsocial1.png,stimuli/Social4.png,stimuli/Social3.png,stimuli/Nonsocial4.png,stimuli/Nonsocial3.png,"(0.7, -0.5)",cs_neg_ns_new,"(0.7, 0.5)",cs_neg_ns_new,0,0,0,0,,,,,0,86,86,82,,393.9187055000001,ä,0.5596064000001206,wrong,,21,B,2024-04-30_10h48.23.964,gca_discrimination2,2022.2.4,144.0322401767772,
positions.xlsx,stimuli.xlsx,test.xlsx,stimuli/Test1.png,stimuli/Test2.png,stimuli/Social2.png,stimuli/Social1.png,stimuli/Nonsocial2.png,stimuli/Nonsocial1.png,stimuli/Social4.png,stimuli/Social3.png,stimuli/Nonsocial4.png,stimuli/Nonsocial3.png,"(0.7, -0.5)",cs_pos_ns,"(-0.7, 0.5)",cs_neg_ns_new,0,0,0,0,,,,,0,87,87,47,,396.5922366000001,ä,0.5673323000000892,correct,,21,B,2024-04-30_10h48.23.964,gca_discrimination2,2022.2.4,144.0322401767772,
positions.xlsx,stimuli.xlsx,test.xlsx,stimuli/Test1.png,stimuli/Test2.png,stimuli/Social2.png,stimuli/Social1.png,stimuli/Nonsocial2.png,stimuli/Nonsocial1.png,stimuli/Social4.png,stimuli/Social3.png,stimuli/Nonsocial4.png,stimuli/Nonsocial3.png,"(0.7, -0.5)",cs_pos_s,"(0.7, 0.5)",cs_pos_s,0,0,0,0,,,,,0,88,88,62,,399.96011409999994,l,0.5507257000001573,correct,,21,B,2024-04-30_10h48.23.964,gca_discrimination2,2022.2.4,144.0322401767772,
positions.xlsx,stimuli.xlsx,test.xlsx,stimuli/Test1.png,stimuli/Test2.png,stimuli/Social2.png,stimuli/Social1.png,stimuli/Nonsocial2.png,stimuli/Nonsocial1.png,stimuli/Social4.png,stimuli/Social3.png,stimuli/Nonsocial4.png,stimuli/Nonsocial3.png,"(0.7, 0.5)",cs_neg_s,"(-0.7, -0.5)",cs_pos_s,0,0,0,0,,,,,0,89,89,0,,402.5711348000001,ä,0.7878223000000162,correct,,21,B,2024-04-30_10h48.23.964,gca_discrimination2,2022.2.4,144.0322401767772,
positions.xlsx,stimuli.xlsx,test.xlsx,stimuli/Test1.png,stimuli/Test2.png,stimuli/Social2.png,stimuli/Social1.png,stimuli/Nonsocial2.png,stimuli/Nonsocial1.png,stimuli/Social4.png,stimuli/Social3.png,stimuli/Nonsocial4.png,stimuli/Nonsocial3.png,"(-0.7, 0.5)",cs_neg_s,"(0.7, 0.5)",cs_neg_s,0,0,0,0,,,,,0,90,90,50,,406.0501376000001,l,0.5255964000000404,correct,,21,B,2024-04-30_10h48.23.964,gca_discrimination2,2022.2.4,144.0322401767772,
positions.xlsx,stimuli.xlsx,test.xlsx,stimuli/Test1.png,stimuli/Test2.png,stimuli/Social2.png,stimuli/Social1.png,stimuli/Nonsocial2.png,stimuli/Nonsocial1.png,stimuli/Social4.png,stimuli/Social3.png,stimuli/Nonsocial4.png,stimuli/Nonsocial3.png,"(-0.7, -0.5)",cs_neg_ns_new,"(0.7, 0.5)",cs_neg_ns_new,0,0,0,0,,,,,0,91,91,93,,409.0847103,ä,0.4814128000000437,wrong,,21,B,2024-04-30_10h48.23.964,gca_discrimination2,2022.2.4,144.0322401767772,
positions.xlsx,stimuli.xlsx,test.xlsx,stimuli/Test1.png,stimuli/Test2.png,stimuli/Social2.png,stimuli/Social1.png,stimuli/Nonsocial2.png,stimuli/Nonsocial1.png,stimuli/Social4.png,stimuli/Social3.png,stimuli/Nonsocial4.png,stimuli/Nonsocial3.png,"(-0.7, 0.5)",cs_pos_ns_new,"(0.7, -0.5)",cs_pos_ns_new,0,0,0,0,,,,,0,92,92,78,,411.64012579999996,l,0.6476979999999912,correct,,21,B,2024-04-30_10h48.23.964,gca_discrimination2,2022.2.4,144.0322401767772,
positions.xlsx,stimuli.xlsx,test.xlsx,stimuli/Test1.png,stimuli/Test2.png,stimuli/Social2.png,stimuli/Social1.png,stimuli/Nonsocial2.png,stimuli/Nonsocial1.png,stimuli/Social4.png,stimuli/Social3.png,stimuli/Nonsocial4.png,stimuli/Nonsocial3.png,"(-0.7, 0.5)",cs_pos_ns,"(0.7, -0.5)",cs_neg_ns,0,0,0,0,,,,,0,93,93,28,,414.90399630000013,ä,0.6063078000001951,correct,,21,B,2024-04-30_10h48.23.964,gca_discrimination2,2022.2.4,144.0322401767772,
positions.xlsx,stimuli.xlsx,test.xlsx,stimuli/Test1.png,stimuli/Test2.png,stimuli/Social2.png,stimuli/Social1.png,stimuli/Nonsocial2.png,stimuli/Nonsocial1.png,stimuli/Social4.png,stimuli/Social3.png,stimuli/Nonsocial4.png,stimuli/Nonsocial3.png,"(0.7, 0.5)",cs_neg_ns_new,"(-0.7, 0.5)",cs_pos_ns,0,0,0,0,,,,,0,94,94,36,,417.8552162,ä,0.6880082999998649,correct,,21,B,2024-04-30_10h48.23.964,gca_discrimination2,2022.2.4,144.0322401767772,
positions.xlsx,stimuli.xlsx,test.xlsx,stimuli/Test1.png,stimuli/Test2.png,stimuli/Social2.png,stimuli/Social1.png,stimuli/Nonsocial2.png,stimuli/Nonsocial1.png,stimuli/Social4.png,stimuli/Social3.png,stimuli/Nonsocial4.png,stimuli/Nonsocial3.png,"(0.7, 0.5)",cs_neg_s_new,"(-0.7, 0.5)",cs_neg_s_new,0,0,0,0,,,,,0,95,95,49,,420.93143399999997,l,0.5080418999998528,correct,,21,B,2024-04-30_10h48.23.964,gca_discrimination2,2022.2.4,144.0322401767772,
