posFile,stimFile,testFile,test1,test2,cs_neg_s,cs_pos_s,cs_neg_ns,cs_pos_ns,cs_neg_s_new,cs_pos_s_new,cs_neg_ns_new,cs_pos_ns_new,position1,stim1,position2,stim2,blocks.thisRepN,blocks.thisTrialN,blocks.thisN,blocks.thisIndex,learning_trials.thisRepN,learning_trials.thisTrialN,learning_trials.thisN,learning_trials.thisIndex,trials.thisRepN,trials.thisTrialN,trials.thisN,trials.thisIndex,textStart.started,key.started,key.keys,correctness,key.rt,textStartTask.started,participant,group,date,expName,psychopyVersion,frameRate,
positions.xlsx,stimuli.xlsx,test.xlsx,stimuli/Test1.png,stimuli/Test2.png,stimuli/Social2.png,stimuli/Social1.png,stimuli/Nonsocial2.png,stimuli/Nonsocial1.png,stimuli/Social4.png,stimuli/Social3.png,stimuli/Nonsocial4.png,stimuli/Nonsocial3.png,"(-0.7, -0.5)",test1,"(-0.7, 0.5)",test2,0,0,0,0,0,0,0,2,,,,,170.72037640000053,210.64930129999993,None,no answer,,,37,B,2024-05-15_15h50.01.840,gca_discrimination2,2022.2.4,144.00672799191537,
positions.xlsx,stimuli.xlsx,test.xlsx,stimuli/Test1.png,stimuli/Test2.png,stimuli/Social2.png,stimuli/Social1.png,stimuli/Nonsocial2.png,stimuli/Nonsocial1.png,stimuli/Social4.png,stimuli/Social3.png,stimuli/Nonsocial4.png,stimuli/Nonsocial3.png,"(0.7, -0.5)",test1,"(-0.7, -0.5)",test2,0,0,0,0,0,1,1,7,,,,,,217.23929920000228,ä,correct,0.44604339999568765,,37,B,2024-05-15_15h50.01.840,gca_discrimination2,2022.2.4,144.00672799191537,
positions.xlsx,stimuli.xlsx,test.xlsx,stimuli/Test1.png,stimuli/Test2.png,stimuli/Social2.png,stimuli/Social1.png,stimuli/Nonsocial2.png,stimuli/Nonsocial1.png,stimuli/Social4.png,stimuli/Social3.png,stimuli/Nonsocial4.png,stimuli/Nonsocial3.png,"(0.7, 0.5)",test1,"(0.7, -0.5)",test1,0,0,0,0,0,2,2,5,,,,,,222.46825680000256,l,correct,0.44810629999483353,,37,B,2024-05-15_15h50.01.840,gca_discrimination2,2022.2.4,144.00672799191537,
positions.xlsx,stimuli.xlsx,test.xlsx,stimuli/Test1.png,stimuli/Test2.png,stimuli/Social2.png,stimuli/Social1.png,stimuli/Nonsocial2.png,stimuli/Nonsocial1.png,stimuli/Social4.png,stimuli/Social3.png,stimuli/Nonsocial4.png,stimuli/Nonsocial3.png,"(-0.7, 0.5)",test2,"(-0.7, -0.5)",test1,0,0,0,0,0,3,3,1,,,,,,227.41944920000242,ä,correct,1.0331151999962458,,37,B,2024-05-15_15h50.01.840,gca_discrimination2,2022.2.4,144.00672799191537,
positions.xlsx,stimuli.xlsx,test.xlsx,stimuli/Test1.png,stimuli/Test2.png,stimuli/Social2.png,stimuli/Social1.png,stimuli/Nonsocial2.png,stimuli/Nonsocial1.png,stimuli/Social4.png,stimuli/Social3.png,stimuli/Nonsocial4.png,stimuli/Nonsocial3.png,"(0.7, -0.5)",test2,"(0.7, 0.5)",test1,0,0,0,0,0,4,4,4,,,,,,232.58590080000067,ä,correct,0.38645039999391884,,37,B,2024-05-15_15h50.01.840,gca_discrimination2,2022.2.4,144.00672799191537,
positions.xlsx,stimuli.xlsx,test.xlsx,stimuli/Test1.png,stimuli/Test2.png,stimuli/Social2.png,stimuli/Social1.png,stimuli/Nonsocial2.png,stimuli/Nonsocial1.png,stimuli/Social4.png,stimuli/Social3.png,stimuli/Nonsocial4.png,stimuli/Nonsocial3.png,"(0.7, -0.5)",test1,"(0.7, 0.5)",test2,0,0,0,0,0,5,5,6,,,,,,237.47458850000112,ä,correct,0.43387049999728333,,37,B,2024-05-15_15h50.01.840,gca_discrimination2,2022.2.4,144.00672799191537,
positions.xlsx,stimuli.xlsx,test.xlsx,stimuli/Test1.png,stimuli/Test2.png,stimuli/Social2.png,stimuli/Social1.png,stimuli/Nonsocial2.png,stimuli/Nonsocial1.png,stimuli/Social4.png,stimuli/Social3.png,stimuli/Nonsocial4.png,stimuli/Nonsocial3.png,"(-0.7, 0.5)",test1,"(-0.7, -0.5)",test2,0,0,0,0,0,6,6,8,,,,,,242.61325870000292,ä,correct,0.3523860999957833,,37,B,2024-05-15_15h50.01.840,gca_discrimination2,2022.2.4,144.00672799191537,
positions.xlsx,stimuli.xlsx,test.xlsx,stimuli/Test1.png,stimuli/Test2.png,stimuli/Social2.png,stimuli/Social1.png,stimuli/Nonsocial2.png,stimuli/Nonsocial1.png,stimuli/Social4.png,stimuli/Social3.png,stimuli/Nonsocial4.png,stimuli/Nonsocial3.png,"(-0.7, -0.5)",test2,"(0.7, 0.5)",test1,0,0,0,0,0,7,7,3,,,,,,247.24501240000245,ä,correct,0.30449899999803165,,37,B,2024-05-15_15h50.01.840,gca_discrimination2,2022.2.4,144.00672799191537,
positions.xlsx,stimuli.xlsx,test.xlsx,stimuli/Test1.png,stimuli/Test2.png,stimuli/Social2.png,stimuli/Social1.png,stimuli/Nonsocial2.png,stimuli/Nonsocial1.png,stimuli/Social4.png,stimuli/Social3.png,stimuli/Nonsocial4.png,stimuli/Nonsocial3.png,"(-0.7, -0.5)",test2,"(0.7, -0.5)",test2,0,0,0,0,0,8,8,9,,,,,,251.4462205000018,l,correct,0.46248149999883026,,37,B,2024-05-15_15h50.01.840,gca_discrimination2,2022.2.4,144.00672799191537,
positions.xlsx,stimuli.xlsx,test.xlsx,stimuli/Test1.png,stimuli/Test2.png,stimuli/Social2.png,stimuli/Social1.png,stimuli/Nonsocial2.png,stimuli/Nonsocial1.png,stimuli/Social4.png,stimuli/Social3.png,stimuli/Nonsocial4.png,stimuli/Nonsocial3.png,"(-0.7, 0.5)",test1,"(0.7, -0.5)",test1,0,0,0,0,0,9,9,0,,,,,,256.24459580000257,l,correct,0.5279212999994343,,37,B,2024-05-15_15h50.01.840,gca_discrimination2,2022.2.4,144.00672799191537,
positions.xlsx,stimuli.xlsx,test.xlsx,stimuli/Test1.png,stimuli/Test2.png,stimuli/Social2.png,stimuli/Social1.png,stimuli/Nonsocial2.png,stimuli/Nonsocial1.png,stimuli/Social4.png,stimuli/Social3.png,stimuli/Nonsocial4.png,stimuli/Nonsocial3.png,"(0.7, -0.5)",cs_pos_ns_new,"(0.7, 0.5)",cs_pos_ns_new,0,0,0,0,,,,,0,0,0,93,,285.993379800002,l,correct,0.8116560999987996,259.19590400000016,37,B,2024-05-15_15h50.01.840,gca_discrimination2,2022.2.4,144.00672799191537,
positions.xlsx,stimuli.xlsx,test.xlsx,stimuli/Test1.png,stimuli/Test2.png,stimuli/Social2.png,stimuli/Social1.png,stimuli/Nonsocial2.png,stimuli/Nonsocial1.png,stimuli/Social4.png,stimuli/Social3.png,stimuli/Nonsocial4.png,stimuli/Nonsocial3.png,"(-0.7, 0.5)",cs_pos_s,"(0.7, -0.5)",cs_pos_s,0,0,0,0,,,,,0,1,1,51,,289.1252258000022,ä,wrong,0.5598741999965569,,37,B,2024-05-15_15h50.01.840,gca_discrimination2,2022.2.4,144.00672799191537,
positions.xlsx,stimuli.xlsx,test.xlsx,stimuli/Test1.png,stimuli/Test2.png,stimuli/Social2.png,stimuli/Social1.png,stimuli/Nonsocial2.png,stimuli/Nonsocial1.png,stimuli/Social4.png,stimuli/Social3.png,stimuli/Nonsocial4.png,stimuli/Nonsocial3.png,"(-0.7, -0.5)",cs_neg_s,"(-0.7, 0.5)",cs_neg_s,0,0,0,0,,,,,0,2,2,56,,291.9167972000032,l,correct,1.0327653999956965,,37,B,2024-05-15_15h50.01.840,gca_discrimination2,2022.2.4,144.00672799191537,
positions.xlsx,stimuli.xlsx,test.xlsx,stimuli/Test1.png,stimuli/Test2.png,stimuli/Social2.png,stimuli/Social1.png,stimuli/Nonsocial2.png,stimuli/Nonsocial1.png,stimuli/Social4.png,stimuli/Social3.png,stimuli/Nonsocial4.png,stimuli/Nonsocial3.png,"(0.7, 0.5)",cs_neg_s_new,"(0.7, -0.5)",cs_neg_s_new,0,0,0,0,,,,,0,3,3,67,,295.13886940000157,l,correct,0.4972293999962858,,37,B,2024-05-15_15h50.01.840,gca_discrimination2,2022.2.4,144.00672799191537,
positions.xlsx,stimuli.xlsx,test.xlsx,stimuli/Test1.png,stimuli/Test2.png,stimuli/Social2.png,stimuli/Social1.png,stimuli/Nonsocial2.png,stimuli/Nonsocial1.png,stimuli/Social4.png,stimuli/Social3.png,stimuli/Nonsocial4.png,stimuli/Nonsocial3.png,"(-0.7, 0.5)",cs_pos_ns_new,"(0.7, -0.5)",cs_neg_ns,0,0,0,0,,,,,0,4,4,41,,298.24290459999975,ä,correct,0.6819612999970559,,37,B,2024-05-15_15h50.01.840,gca_discrimination2,2022.2.4,144.00672799191537,
positions.xlsx,stimuli.xlsx,test.xlsx,stimuli/Test1.png,stimuli/Test2.png,stimuli/Social2.png,stimuli/Social1.png,stimuli/Nonsocial2.png,stimuli/Nonsocial1.png,stimuli/Social4.png,stimuli/Social3.png,stimuli/Nonsocial4.png,stimuli/Nonsocial3.png,"(-0.7, -0.5)",cs_pos_s,"(0.7, 0.5)",cs_pos_s,0,0,0,0,,,,,0,5,5,70,,301.3261173000028,l,correct,1.4701783999989857,,37,B,2024-05-15_15h50.01.840,gca_discrimination2,2022.2.4,144.00672799191537,
positions.xlsx,stimuli.xlsx,test.xlsx,stimuli/Test1.png,stimuli/Test2.png,stimuli/Social2.png,stimuli/Social1.png,stimuli/Nonsocial2.png,stimuli/Nonsocial1.png,stimuli/Social4.png,stimuli/Social3.png,stimuli/Nonsocial4.png,stimuli/Nonsocial3.png,"(-0.7, 0.5)",cs_neg_ns_new,"(0.7, 0.5)",cs_neg_ns_new,0,0,0,0,,,,,0,6,6,95,,305.15929479999977,l,correct,1.541089499994996,,37,B,2024-05-15_15h50.01.840,gca_discrimination2,2022.2.4,144.00672799191537,
positions.xlsx,stimuli.xlsx,test.xlsx,stimuli/Test1.png,stimuli/Test2.png,stimuli/Social2.png,stimuli/Social1.png,stimuli/Nonsocial2.png,stimuli/Nonsocial1.png,stimuli/Social4.png,stimuli/Social3.png,stimuli/Nonsocial4.png,stimuli/Nonsocial3.png,"(-0.7, 0.5)",cs_neg_ns_new,"(-0.7, -0.5)",cs_neg_ns,0,0,0,0,,,,,0,7,7,43,,308.8188704000022,l,wrong,0.8654996999975992,,37,B,2024-05-15_15h50.01.840,gca_discrimination2,2022.2.4,144.00672799191537,
positions.xlsx,stimuli.xlsx,test.xlsx,stimuli/Test1.png,stimuli/Test2.png,stimuli/Social2.png,stimuli/Social1.png,stimuli/Nonsocial2.png,stimuli/Nonsocial1.png,stimuli/Social4.png,stimuli/Social3.png,stimuli/Nonsocial4.png,stimuli/Nonsocial3.png,"(-0.7, 0.5)",cs_pos_ns_new,"(0.7, -0.5)",cs_neg_ns_new,0,0,0,0,,,,,0,8,8,34,,312.31872830000066,l,wrong,0.4774824999985867,,37,B,2024-05-15_15h50.01.840,gca_discrimination2,2022.2.4,144.00672799191537,
positions.xlsx,stimuli.xlsx,test.xlsx,stimuli/Test1.png,stimuli/Test2.png,stimuli/Social2.png,stimuli/Social1.png,stimuli/Nonsocial2.png,stimuli/Nonsocial1.png,stimuli/Social4.png,stimuli/Social3.png,stimuli/Nonsocial4.png,stimuli/Nonsocial3.png,"(0.7, -0.5)",cs_pos_s,"(0.7, 0.5)",cs_pos_s,0,0,0,0,,,,,0,9,9,71,,315.5546959000021,l,correct,0.5217368999947212,,37,B,2024-05-15_15h50.01.840,gca_discrimination2,2022.2.4,144.00672799191537,
positions.xlsx,stimuli.xlsx,test.xlsx,stimuli/Test1.png,stimuli/Test2.png,stimuli/Social2.png,stimuli/Social1.png,stimuli/Nonsocial2.png,stimuli/Nonsocial1.png,stimuli/Social4.png,stimuli/Social3.png,stimuli/Nonsocial4.png,stimuli/Nonsocial3.png,"(0.7, 0.5)",cs_pos_s,"(0.7, -0.5)",cs_neg_s_new,0,0,0,0,,,,,0,10,10,3,,318.64484230000016,ä,correct,0.4476849999955448,,37,B,2024-05-15_15h50.01.840,gca_discrimination2,2022.2.4,144.00672799191537,
positions.xlsx,stimuli.xlsx,test.xlsx,stimuli/Test1.png,stimuli/Test2.png,stimuli/Social2.png,stimuli/Social1.png,stimuli/Nonsocial2.png,stimuli/Nonsocial1.png,stimuli/Social4.png,stimuli/Social3.png,stimuli/Nonsocial4.png,stimuli/Nonsocial3.png,"(-0.7, -0.5)",cs_neg_s,"(0.7, 0.5)",cs_neg_s,0,0,0,0,,,,,0,11,11,48,,321.63777980000305,l,correct,1.2556877999959397,,37,B,2024-05-15_15h50.01.840,gca_discrimination2,2022.2.4,144.00672799191537,
positions.xlsx,stimuli.xlsx,test.xlsx,stimuli/Test1.png,stimuli/Test2.png,stimuli/Social2.png,stimuli/Social1.png,stimuli/Nonsocial2.png,stimuli/Nonsocial1.png,stimuli/Social4.png,stimuli/Social3.png,stimuli/Nonsocial4.png,stimuli/Nonsocial3.png,"(-0.7, -0.5)",cs_pos_s,"(0.7, -0.5)",cs_pos_s,0,0,0,0,,,,,0,12,12,66,,324.922370100001,l,correct,1.065651999997499,,37,B,2024-05-15_15h50.01.840,gca_discrimination2,2022.2.4,144.00672799191537,
positions.xlsx,stimuli.xlsx,test.xlsx,stimuli/Test1.png,stimuli/Test2.png,stimuli/Social2.png,stimuli/Social1.png,stimuli/Nonsocial2.png,stimuli/Nonsocial1.png,stimuli/Social4.png,stimuli/Social3.png,stimuli/Nonsocial4.png,stimuli/Nonsocial3.png,"(-0.7, -0.5)",cs_neg_s,"(-0.7, 0.5)",cs_neg_s_new,0,0,0,0,,,,,0,13,13,2,,328.09585140000127,ä,correct,0.5083368999985396,,37,B,2024-05-15_15h50.01.840,gca_discrimination2,2022.2.4,144.00672799191537,
positions.xlsx,stimuli.xlsx,test.xlsx,stimuli/Test1.png,stimuli/Test2.png,stimuli/Social2.png,stimuli/Social1.png,stimuli/Nonsocial2.png,stimuli/Nonsocial1.png,stimuli/Social4.png,stimuli/Social3.png,stimuli/Nonsocial4.png,stimuli/Nonsocial3.png,"(0.7, -0.5)",cs_neg_ns,"(0.7, 0.5)",cs_pos_ns_new,0,0,0,0,,,,,0,14,14,27,,330.89434210000036,ä,correct,1.2862109999987297,,37,B,2024-05-15_15h50.01.840,gca_discrimination2,2022.2.4,144.00672799191537,
positions.xlsx,stimuli.xlsx,test.xlsx,stimuli/Test1.png,stimuli/Test2.png,stimuli/Social2.png,stimuli/Social1.png,stimuli/Nonsocial2.png,stimuli/Nonsocial1.png,stimuli/Social4.png,stimuli/Social3.png,stimuli/Nonsocial4.png,stimuli/Nonsocial3.png,"(0.7, 0.5)",cs_pos_ns,"(-0.7, -0.5)",cs_pos_ns,0,0,0,0,,,,,0,15,15,90,,334.9705943000008,l,correct,0.8577149999982794,,37,B,2024-05-15_15h50.01.840,gca_discrimination2,2022.2.4,144.00672799191537,
positions.xlsx,stimuli.xlsx,test.xlsx,stimuli/Test1.png,stimuli/Test2.png,stimuli/Social2.png,stimuli/Social1.png,stimuli/Nonsocial2.png,stimuli/Nonsocial1.png,stimuli/Social4.png,stimuli/Social3.png,stimuli/Nonsocial4.png,stimuli/Nonsocial3.png,"(0.7, 0.5)",cs_pos_s_new,"(-0.7, -0.5)",cs_neg_s_new,0,0,0,0,,,,,0,16,16,10,,338.0260107000031,ä,correct,0.4263029999965511,,37,B,2024-05-15_15h50.01.840,gca_discrimination2,2022.2.4,144.00672799191537,
positions.xlsx,stimuli.xlsx,test.xlsx,stimuli/Test1.png,stimuli/Test2.png,stimuli/Social2.png,stimuli/Social1.png,stimuli/Nonsocial2.png,stimuli/Nonsocial1.png,stimuli/Social4.png,stimuli/Social3.png,stimuli/Nonsocial4.png,stimuli/Nonsocial3.png,"(0.7, -0.5)",cs_neg_s_new,"(-0.7, -0.5)",cs_neg_s_new,0,0,0,0,,,,,0,17,17,54,,341.2063909000026,l,correct,0.5578164999969886,,37,B,2024-05-15_15h50.01.840,gca_discrimination2,2022.2.4,144.00672799191537,
positions.xlsx,stimuli.xlsx,test.xlsx,stimuli/Test1.png,stimuli/Test2.png,stimuli/Social2.png,stimuli/Social1.png,stimuli/Nonsocial2.png,stimuli/Nonsocial1.png,stimuli/Social4.png,stimuli/Social3.png,stimuli/Nonsocial4.png,stimuli/Nonsocial3.png,"(-0.7, -0.5)",cs_pos_ns,"(0.7, 0.5)",cs_neg_ns_new,0,0,0,0,,,,,0,18,18,31,,344.5326909000032,ä,correct,0.649131899997883,,37,B,2024-05-15_15h50.01.840,gca_discrimination2,2022.2.4,144.00672799191537,
positions.xlsx,stimuli.xlsx,test.xlsx,stimuli/Test1.png,stimuli/Test2.png,stimuli/Social2.png,stimuli/Social1.png,stimuli/Nonsocial2.png,stimuli/Nonsocial1.png,stimuli/Social4.png,stimuli/Social3.png,stimuli/Nonsocial4.png,stimuli/Nonsocial3.png,"(0.7, 0.5)",cs_pos_ns,"(-0.7, 0.5)",cs_pos_ns,0,0,0,0,,,,,0,19,19,77,,347.8172598000019,l,correct,0.9150716999974975,,37,B,2024-05-15_15h50.01.840,gca_discrimination2,2022.2.4,144.00672799191537,
positions.xlsx,stimuli.xlsx,test.xlsx,stimuli/Test1.png,stimuli/Test2.png,stimuli/Social2.png,stimuli/Social1.png,stimuli/Nonsocial2.png,stimuli/Nonsocial1.png,stimuli/Social4.png,stimuli/Social3.png,stimuli/Nonsocial4.png,stimuli/Nonsocial3.png,"(0.7, -0.5)",cs_pos_s_new,"(-0.7, -0.5)",cs_neg_s,0,0,0,0,,,,,0,20,20,6,,350.9213130999997,l,wrong,0.8430638999961957,,37,B,2024-05-15_15h50.01.840,gca_discrimination2,2022.2.4,144.00672799191537,
positions.xlsx,stimuli.xlsx,test.xlsx,stimuli/Test1.png,stimuli/Test2.png,stimuli/Social2.png,stimuli/Social1.png,stimuli/Nonsocial2.png,stimuli/Nonsocial1.png,stimuli/Social4.png,stimuli/Social3.png,stimuli/Nonsocial4.png,stimuli/Nonsocial3.png,"(-0.7, -0.5)",cs_pos_s_new,"(0.7, -0.5)",cs_pos_s_new,0,0,0,0,,,,,0,21,21,50,,354.46977830000105,l,correct,0.7829732999962289,,37,B,2024-05-15_15h50.01.840,gca_discrimination2,2022.2.4,144.00672799191537,
positions.xlsx,stimuli.xlsx,test.xlsx,stimuli/Test1.png,stimuli/Test2.png,stimuli/Social2.png,stimuli/Social1.png,stimuli/Nonsocial2.png,stimuli/Nonsocial1.png,stimuli/Social4.png,stimuli/Social3.png,stimuli/Nonsocial4.png,stimuli/Nonsocial3.png,"(0.7, 0.5)",cs_neg_s,"(0.7, -0.5)",cs_neg_s,0,0,0,0,,,,,0,22,22,63,,357.1016012,l,correct,0.591895099994872,,37,B,2024-05-15_15h50.01.840,gca_discrimination2,2022.2.4,144.00672799191537,
positions.xlsx,stimuli.xlsx,test.xlsx,stimuli/Test1.png,stimuli/Test2.png,stimuli/Social2.png,stimuli/Social1.png,stimuli/Nonsocial2.png,stimuli/Nonsocial1.png,stimuli/Social4.png,stimuli/Social3.png,stimuli/Nonsocial4.png,stimuli/Nonsocial3.png,"(0.7, -0.5)",cs_neg_s,"(0.7, 0.5)",cs_neg_s_new,0,0,0,0,,,,,0,23,23,18,,360.28202290000263,ä,correct,0.40246839999599615,,37,B,2024-05-15_15h50.01.840,gca_discrimination2,2022.2.4,144.00672799191537,
positions.xlsx,stimuli.xlsx,test.xlsx,stimuli/Test1.png,stimuli/Test2.png,stimuli/Social2.png,stimuli/Social1.png,stimuli/Nonsocial2.png,stimuli/Nonsocial1.png,stimuli/Social4.png,stimuli/Social3.png,stimuli/Nonsocial4.png,stimuli/Nonsocial3.png,"(0.7, 0.5)",cs_pos_s_new,"(-0.7, -0.5)",cs_pos_s_new,0,0,0,0,,,,,0,24,24,60,,363.4485531999999,l,correct,1.051903499996115,,37,B,2024-05-15_15h50.01.840,gca_discrimination2,2022.2.4,144.00672799191537,
positions.xlsx,stimuli.xlsx,test.xlsx,stimuli/Test1.png,stimuli/Test2.png,stimuli/Social2.png,stimuli/Social1.png,stimuli/Nonsocial2.png,stimuli/Nonsocial1.png,stimuli/Social4.png,stimuli/Social3.png,stimuli/Nonsocial4.png,stimuli/Nonsocial3.png,"(-0.7, 0.5)",cs_pos_s_new,"(-0.7, -0.5)",cs_pos_s_new,0,0,0,0,,,,,0,25,25,52,,367.2053513999999,l,correct,0.4396506999983103,,37,B,2024-05-15_15h50.01.840,gca_discrimination2,2022.2.4,144.00672799191537,
positions.xlsx,stimuli.xlsx,test.xlsx,stimuli/Test1.png,stimuli/Test2.png,stimuli/Social2.png,stimuli/Social1.png,stimuli/Nonsocial2.png,stimuli/Nonsocial1.png,stimuli/Social4.png,stimuli/Social3.png,stimuli/Nonsocial4.png,stimuli/Nonsocial3.png,"(0.7, -0.5)",cs_neg_ns_new,"(-0.7, -0.5)",cs_neg_ns_new,0,0,0,0,,,,,0,26,26,88,,370.2399449000004,l,correct,0.772207799996977,,37,B,2024-05-15_15h50.01.840,gca_discrimination2,2022.2.4,144.00672799191537,
positions.xlsx,stimuli.xlsx,test.xlsx,stimuli/Test1.png,stimuli/Test2.png,stimuli/Social2.png,stimuli/Social1.png,stimuli/Nonsocial2.png,stimuli/Nonsocial1.png,stimuli/Social4.png,stimuli/Social3.png,stimuli/Nonsocial4.png,stimuli/Nonsocial3.png,"(0.7, 0.5)",cs_pos_ns_new,"(0.7, -0.5)",cs_pos_ns_new,0,0,0,0,,,,,0,27,27,82,,373.81619000000137,ä,wrong,0.819619199995941,,37,B,2024-05-15_15h50.01.840,gca_discrimination2,2022.2.4,144.00672799191537,
positions.xlsx,stimuli.xlsx,test.xlsx,stimuli/Test1.png,stimuli/Test2.png,stimuli/Social2.png,stimuli/Social1.png,stimuli/Nonsocial2.png,stimuli/Nonsocial1.png,stimuli/Social4.png,stimuli/Social3.png,stimuli/Nonsocial4.png,stimuli/Nonsocial3.png,"(0.7, 0.5)",cs_neg_s_new,"(-0.7, -0.5)",cs_pos_s_new,0,0,0,0,,,,,0,28,28,23,,376.58692510000037,ä,correct,1.121024199997919,,37,B,2024-05-15_15h50.01.840,gca_discrimination2,2022.2.4,144.00672799191537,
positions.xlsx,stimuli.xlsx,test.xlsx,stimuli/Test1.png,stimuli/Test2.png,stimuli/Social2.png,stimuli/Social1.png,stimuli/Nonsocial2.png,stimuli/Nonsocial1.png,stimuli/Social4.png,stimuli/Social3.png,stimuli/Nonsocial4.png,stimuli/Nonsocial3.png,"(0.7, -0.5)",cs_pos_ns,"(-0.7, 0.5)",cs_pos_ns,0,0,0,0,,,,,0,29,29,72,,379.62846120000177,l,correct,0.8313923999994586,,37,B,2024-05-15_15h50.01.840,gca_discrimination2,2022.2.4,144.00672799191537,
positions.xlsx,stimuli.xlsx,test.xlsx,stimuli/Test1.png,stimuli/Test2.png,stimuli/Social2.png,stimuli/Social1.png,stimuli/Nonsocial2.png,stimuli/Nonsocial1.png,stimuli/Social4.png,stimuli/Social3.png,stimuli/Nonsocial4.png,stimuli/Nonsocial3.png,"(-0.7, 0.5)",cs_neg_ns,"(0.7, -0.5)",cs_neg_ns,0,0,0,0,,,,,0,30,30,92,,382.81581670000014,l,correct,0.8045315999988816,,37,B,2024-05-15_15h50.01.840,gca_discrimination2,2022.2.4,144.00672799191537,
positions.xlsx,stimuli.xlsx,test.xlsx,stimuli/Test1.png,stimuli/Test2.png,stimuli/Social2.png,stimuli/Social1.png,stimuli/Nonsocial2.png,stimuli/Nonsocial1.png,stimuli/Social4.png,stimuli/Social3.png,stimuli/Nonsocial4.png,stimuli/Nonsocial3.png,"(0.7, 0.5)",cs_neg_s_new,"(-0.7, -0.5)",cs_neg_s_new,0,0,0,0,,,,,0,31,31,65,,386.39202210000076,l,correct,0.9645798999990802,,37,B,2024-05-15_15h50.01.840,gca_discrimination2,2022.2.4,144.00672799191537,
positions.xlsx,stimuli.xlsx,test.xlsx,stimuli/Test1.png,stimuli/Test2.png,stimuli/Social2.png,stimuli/Social1.png,stimuli/Nonsocial2.png,stimuli/Nonsocial1.png,stimuli/Social4.png,stimuli/Social3.png,stimuli/Nonsocial4.png,stimuli/Nonsocial3.png,"(-0.7, 0.5)",cs_pos_s_new,"(0.7, -0.5)",cs_pos_s_new,0,0,0,0,,,,,0,32,32,49,,389.97523510000246,l,correct,0.8291535999996995,,37,B,2024-05-15_15h50.01.840,gca_discrimination2,2022.2.4,144.00672799191537,
positions.xlsx,stimuli.xlsx,test.xlsx,stimuli/Test1.png,stimuli/Test2.png,stimuli/Social2.png,stimuli/Social1.png,stimuli/Nonsocial2.png,stimuli/Nonsocial1.png,stimuli/Social4.png,stimuli/Social3.png,stimuli/Nonsocial4.png,stimuli/Nonsocial3.png,"(-0.7, -0.5)",cs_neg_ns_new,"(0.7, -0.5)",cs_neg_ns_new,0,0,0,0,,,,,0,33,33,74,,392.90566930000205,l,correct,0.6590864999961923,,37,B,2024-05-15_15h50.01.840,gca_discrimination2,2022.2.4,144.00672799191537,
positions.xlsx,stimuli.xlsx,test.xlsx,stimuli/Test1.png,stimuli/Test2.png,stimuli/Social2.png,stimuli/Social1.png,stimuli/Nonsocial2.png,stimuli/Nonsocial1.png,stimuli/Social4.png,stimuli/Social3.png,stimuli/Nonsocial4.png,stimuli/Nonsocial3.png,"(-0.7, -0.5)",cs_neg_s_new,"(0.7, -0.5)",cs_pos_s,0,0,0,0,,,,,0,34,34,11,,395.73889410000265,ä,correct,0.5139945999981137,,37,B,2024-05-15_15h50.01.840,gca_discrimination2,2022.2.4,144.00672799191537,
positions.xlsx,stimuli.xlsx,test.xlsx,stimuli/Test1.png,stimuli/Test2.png,stimuli/Social2.png,stimuli/Social1.png,stimuli/Nonsocial2.png,stimuli/Nonsocial1.png,stimuli/Social4.png,stimuli/Social3.png,stimuli/Nonsocial4.png,stimuli/Nonsocial3.png,"(0.7, -0.5)",cs_pos_s_new,"(-0.7, -0.5)",cs_pos_s_new,0,0,0,0,,,,,0,35,35,69,,398.37073370000144,l,correct,1.2652643999972497,,37,B,2024-05-15_15h50.01.840,gca_discrimination2,2022.2.4,144.00672799191537,
positions.xlsx,stimuli.xlsx,test.xlsx,stimuli/Test1.png,stimuli/Test2.png,stimuli/Social2.png,stimuli/Social1.png,stimuli/Nonsocial2.png,stimuli/Nonsocial1.png,stimuli/Social4.png,stimuli/Social3.png,stimuli/Nonsocial4.png,stimuli/Nonsocial3.png,"(-0.7, -0.5)",cs_neg_ns,"(0.7, -0.5)",cs_pos_ns,0,0,0,0,,,,,0,36,36,29,,401.6622916000015,l,wrong,0.630555199997616,,37,B,2024-05-15_15h50.01.840,gca_discrimination2,2022.2.4,144.00672799191537,
positions.xlsx,stimuli.xlsx,test.xlsx,stimuli/Test1.png,stimuli/Test2.png,stimuli/Social2.png,stimuli/Social1.png,stimuli/Nonsocial2.png,stimuli/Nonsocial1.png,stimuli/Social4.png,stimuli/Social3.png,stimuli/Nonsocial4.png,stimuli/Nonsocial3.png,"(0.7, 0.5)",cs_pos_ns,"(-0.7, 0.5)",cs_neg_ns,0,0,0,0,,,,,0,37,37,30,,404.5510463000028,l,wrong,1.0465422999986913,,37,B,2024-05-15_15h50.01.840,gca_discrimination2,2022.2.4,144.00672799191537,
positions.xlsx,stimuli.xlsx,test.xlsx,stimuli/Test1.png,stimuli/Test2.png,stimuli/Social2.png,stimuli/Social1.png,stimuli/Nonsocial2.png,stimuli/Nonsocial1.png,stimuli/Social4.png,stimuli/Social3.png,stimuli/Nonsocial4.png,stimuli/Nonsocial3.png,"(-0.7, -0.5)",cs_pos_ns,"(-0.7, 0.5)",cs_neg_ns,0,0,0,0,,,,,0,38,38,32,,407.50926470000195,l,wrong,0.6712750999977288,,37,B,2024-05-15_15h50.01.840,gca_discrimination2,2022.2.4,144.00672799191537,
positions.xlsx,stimuli.xlsx,test.xlsx,stimuli/Test1.png,stimuli/Test2.png,stimuli/Social2.png,stimuli/Social1.png,stimuli/Nonsocial2.png,stimuli/Nonsocial1.png,stimuli/Social4.png,stimuli/Social3.png,stimuli/Nonsocial4.png,stimuli/Nonsocial3.png,"(0.7, 0.5)",cs_neg_s,"(-0.7, 0.5)",cs_neg_s_new,0,0,0,0,,,,,0,39,39,1,,410.43273930000214,ä,correct,1.595827899996948,,37,B,2024-05-15_15h50.01.840,gca_discrimination2,2022.2.4,144.00672799191537,
positions.xlsx,stimuli.xlsx,test.xlsx,stimuli/Test1.png,stimuli/Test2.png,stimuli/Social2.png,stimuli/Social1.png,stimuli/Nonsocial2.png,stimuli/Nonsocial1.png,stimuli/Social4.png,stimuli/Social3.png,stimuli/Nonsocial4.png,stimuli/Nonsocial3.png,"(-0.7, 0.5)",cs_neg_ns_new,"(0.7, -0.5)",cs_pos_ns,0,0,0,0,,,,,0,40,40,38,,414.3353883000018,ä,correct,0.9404683999964618,,37,B,2024-05-15_15h50.01.840,gca_discrimination2,2022.2.4,144.00672799191537,
positions.xlsx,stimuli.xlsx,test.xlsx,stimuli/Test1.png,stimuli/Test2.png,stimuli/Social2.png,stimuli/Social1.png,stimuli/Nonsocial2.png,stimuli/Nonsocial1.png,stimuli/Social4.png,stimuli/Social3.png,stimuli/Nonsocial4.png,stimuli/Nonsocial3.png,"(-0.7, 0.5)",cs_neg_ns,"(0.7, -0.5)",cs_pos_ns,0,0,0,0,,,,,0,41,41,28,,417.58522070000254,ä,correct,0.6106007999951544,,37,B,2024-05-15_15h50.01.840,gca_discrimination2,2022.2.4,144.00672799191537,
positions.xlsx,stimuli.xlsx,test.xlsx,stimuli/Test1.png,stimuli/Test2.png,stimuli/Social2.png,stimuli/Social1.png,stimuli/Nonsocial2.png,stimuli/Nonsocial1.png,stimuli/Social4.png,stimuli/Social3.png,stimuli/Nonsocial4.png,stimuli/Nonsocial3.png,"(0.7, -0.5)",cs_pos_s,"(-0.7, -0.5)",cs_neg_s_new,0,0,0,0,,,,,0,42,42,17,,420.86285690000295,l,wrong,0.46265629999834346,,37,B,2024-05-15_15h50.01.840,gca_discrimination2,2022.2.4,144.00672799191537,
positions.xlsx,stimuli.xlsx,test.xlsx,stimuli/Test1.png,stimuli/Test2.png,stimuli/Social2.png,stimuli/Social1.png,stimuli/Nonsocial2.png,stimuli/Nonsocial1.png,stimuli/Social4.png,stimuli/Social3.png,stimuli/Nonsocial4.png,stimuli/Nonsocial3.png,"(-0.7, 0.5)",cs_neg_s_new,"(0.7, -0.5)",cs_neg_s_new,0,0,0,0,,,,,0,43,43,57,,423.29330570000093,ä,wrong,0.4308420999950613,,37,B,2024-05-15_15h50.01.840,gca_discrimination2,2022.2.4,144.00672799191537,
positions.xlsx,stimuli.xlsx,test.xlsx,stimuli/Test1.png,stimuli/Test2.png,stimuli/Social2.png,stimuli/Social1.png,stimuli/Nonsocial2.png,stimuli/Nonsocial1.png,stimuli/Social4.png,stimuli/Social3.png,stimuli/Nonsocial4.png,stimuli/Nonsocial3.png,"(-0.7, -0.5)",cs_neg_s_new,"(0.7, 0.5)",cs_pos_s_new,0,0,0,0,,,,,0,44,44,7,,425.56403820000196,None,no answer,,,37,B,2024-05-15_15h50.01.840,gca_discrimination2,2022.2.4,144.00672799191537,
positions.xlsx,stimuli.xlsx,test.xlsx,stimuli/Test1.png,stimuli/Test2.png,stimuli/Social2.png,stimuli/Social1.png,stimuli/Nonsocial2.png,stimuli/Nonsocial1.png,stimuli/Social4.png,stimuli/Social3.png,stimuli/Nonsocial4.png,stimuli/Nonsocial3.png,"(0.7, -0.5)",cs_pos_s,"(-0.7, 0.5)",cs_pos_s,0,0,0,0,,,,,0,45,45,68,,430.3485961000006,None,no answer,,,37,B,2024-05-15_15h50.01.840,gca_discrimination2,2022.2.4,144.00672799191537,
positions.xlsx,stimuli.xlsx,test.xlsx,stimuli/Test1.png,stimuli/Test2.png,stimuli/Social2.png,stimuli/Social1.png,stimuli/Nonsocial2.png,stimuli/Nonsocial1.png,stimuli/Social4.png,stimuli/Social3.png,stimuli/Nonsocial4.png,stimuli/Nonsocial3.png,"(-0.7, 0.5)",cs_pos_s_new,"(0.7, -0.5)",cs_pos_s,0,0,0,0,,,,,0,46,46,4,,434.46648020000066,ä,correct,1.2819612999992387,,37,B,2024-05-15_15h50.01.840,gca_discrimination2,2022.2.4,144.00672799191537,
positions.xlsx,stimuli.xlsx,test.xlsx,stimuli/Test1.png,stimuli/Test2.png,stimuli/Social2.png,stimuli/Social1.png,stimuli/Nonsocial2.png,stimuli/Nonsocial1.png,stimuli/Social4.png,stimuli/Social3.png,stimuli/Nonsocial4.png,stimuli/Nonsocial3.png,"(0.7, -0.5)",cs_neg_ns_new,"(-0.7, 0.5)",cs_pos_ns,0,0,0,0,,,,,0,47,47,45,,438.07051400000273,None,no answer,,,37,B,2024-05-15_15h50.01.840,gca_discrimination2,2022.2.4,144.00672799191537,
positions.xlsx,stimuli.xlsx,test.xlsx,stimuli/Test1.png,stimuli/Test2.png,stimuli/Social2.png,stimuli/Social1.png,stimuli/Nonsocial2.png,stimuli/Nonsocial1.png,stimuli/Social4.png,stimuli/Social3.png,stimuli/Nonsocial4.png,stimuli/Nonsocial3.png,"(-0.7, -0.5)",cs_pos_ns,"(0.7, 0.5)",cs_pos_ns,0,0,0,0,,,,,0,48,48,78,,442.0564583000014,l,correct,0.6921873999999661,,37,B,2024-05-15_15h50.01.840,gca_discrimination2,2022.2.4,144.00672799191537,
positions.xlsx,stimuli.xlsx,test.xlsx,stimuli/Test1.png,stimuli/Test2.png,stimuli/Social2.png,stimuli/Social1.png,stimuli/Nonsocial2.png,stimuli/Nonsocial1.png,stimuli/Social4.png,stimuli/Social3.png,stimuli/Nonsocial4.png,stimuli/Nonsocial3.png,"(-0.7, -0.5)",cs_pos_ns_new,"(0.7, 0.5)",cs_pos_ns,0,0,0,0,,,,,0,49,49,47,,444.99382289999994,l,wrong,0.5383250999984739,,37,B,2024-05-15_15h50.01.840,gca_discrimination2,2022.2.4,144.00672799191537,
positions.xlsx,stimuli.xlsx,test.xlsx,stimuli/Test1.png,stimuli/Test2.png,stimuli/Social2.png,stimuli/Social1.png,stimuli/Nonsocial2.png,stimuli/Nonsocial1.png,stimuli/Social4.png,stimuli/Social3.png,stimuli/Nonsocial4.png,stimuli/Nonsocial3.png,"(-0.7, 0.5)",cs_pos_ns_new,"(0.7, 0.5)",cs_pos_ns_new,0,0,0,0,,,,,0,50,50,89,,448.2298386000002,l,correct,0.6222534999978961,,37,B,2024-05-15_15h50.01.840,gca_discrimination2,2022.2.4,144.00672799191537,
positions.xlsx,stimuli.xlsx,test.xlsx,stimuli/Test1.png,stimuli/Test2.png,stimuli/Social2.png,stimuli/Social1.png,stimuli/Nonsocial2.png,stimuli/Nonsocial1.png,stimuli/Social4.png,stimuli/Social3.png,stimuli/Nonsocial4.png,stimuli/Nonsocial3.png,"(0.7, -0.5)",cs_pos_ns_new,"(-0.7, -0.5)",cs_pos_ns,0,0,0,0,,,,,0,51,51,37,,451.4866082000008,l,wrong,0.49380749999545515,,37,B,2024-05-15_15h50.01.840,gca_discrimination2,2022.2.4,144.00672799191537,
positions.xlsx,stimuli.xlsx,test.xlsx,stimuli/Test1.png,stimuli/Test2.png,stimuli/Social2.png,stimuli/Social1.png,stimuli/Nonsocial2.png,stimuli/Nonsocial1.png,stimuli/Social4.png,stimuli/Social3.png,stimuli/Nonsocial4.png,stimuli/Nonsocial3.png,"(-0.7, -0.5)",cs_neg_s,"(0.7, -0.5)",cs_neg_s_new,0,0,0,0,,,,,0,52,52,19,,454.4864899000022,ä,correct,1.1421901999965485,,37,B,2024-05-15_15h50.01.840,gca_discrimination2,2022.2.4,144.00672799191537,
positions.xlsx,stimuli.xlsx,test.xlsx,stimuli/Test1.png,stimuli/Test2.png,stimuli/Social2.png,stimuli/Social1.png,stimuli/Nonsocial2.png,stimuli/Nonsocial1.png,stimuli/Social4.png,stimuli/Social3.png,stimuli/Nonsocial4.png,stimuli/Nonsocial3.png,"(0.7, -0.5)",cs_neg_ns,"(0.7, 0.5)",cs_neg_ns,0,0,0,0,,,,,0,53,53,79,,458.3682652000025,l,correct,0.5884788999974262,,37,B,2024-05-15_15h50.01.840,gca_discrimination2,2022.2.4,144.00672799191537,
positions.xlsx,stimuli.xlsx,test.xlsx,stimuli/Test1.png,stimuli/Test2.png,stimuli/Social2.png,stimuli/Social1.png,stimuli/Nonsocial2.png,stimuli/Nonsocial1.png,stimuli/Social4.png,stimuli/Social3.png,stimuli/Nonsocial4.png,stimuli/Nonsocial3.png,"(0.7, -0.5)",cs_pos_ns_new,"(-0.7, 0.5)",cs_pos_ns_new,0,0,0,0,,,,,0,54,54,83,,461.43758140000136,l,correct,0.47895059999791556,,37,B,2024-05-15_15h50.01.840,gca_discrimination2,2022.2.4,144.00672799191537,
positions.xlsx,stimuli.xlsx,test.xlsx,stimuli/Test1.png,stimuli/Test2.png,stimuli/Social2.png,stimuli/Social1.png,stimuli/Nonsocial2.png,stimuli/Nonsocial1.png,stimuli/Social4.png,stimuli/Social3.png,stimuli/Nonsocial4.png,stimuli/Nonsocial3.png,"(-0.7, 0.5)",cs_neg_s,"(-0.7, -0.5)",cs_neg_s,0,0,0,0,,,,,0,55,55,55,,463.7430478000024,l,correct,0.6047395999994478,,37,B,2024-05-15_15h50.01.840,gca_discrimination2,2022.2.4,144.00672799191537,
positions.xlsx,stimuli.xlsx,test.xlsx,stimuli/Test1.png,stimuli/Test2.png,stimuli/Social2.png,stimuli/Social1.png,stimuli/Nonsocial2.png,stimuli/Nonsocial1.png,stimuli/Social4.png,stimuli/Social3.png,stimuli/Nonsocial4.png,stimuli/Nonsocial3.png,"(-0.7, 0.5)",cs_neg_s_new,"(-0.7, -0.5)",cs_neg_s_new,0,0,0,0,,,,,0,56,56,59,,466.5206911000023,l,correct,0.7150475999987975,,37,B,2024-05-15_15h50.01.840,gca_discrimination2,2022.2.4,144.00672799191537,
positions.xlsx,stimuli.xlsx,test.xlsx,stimuli/Test1.png,stimuli/Test2.png,stimuli/Social2.png,stimuli/Social1.png,stimuli/Nonsocial2.png,stimuli/Nonsocial1.png,stimuli/Social4.png,stimuli/Social3.png,stimuli/Nonsocial4.png,stimuli/Nonsocial3.png,"(0.7, 0.5)",cs_pos_ns_new,"(-0.7, -0.5)",cs_pos_ns_new,0,0,0,0,,,,,0,57,57,80,,469.9789289,l,correct,0.5863262999955623,,37,B,2024-05-15_15h50.01.840,gca_discrimination2,2022.2.4,144.00672799191537,
positions.xlsx,stimuli.xlsx,test.xlsx,stimuli/Test1.png,stimuli/Test2.png,stimuli/Social2.png,stimuli/Social1.png,stimuli/Nonsocial2.png,stimuli/Nonsocial1.png,stimuli/Social4.png,stimuli/Social3.png,stimuli/Nonsocial4.png,stimuli/Nonsocial3.png,"(-0.7, 0.5)",cs_pos_s_new,"(0.7, 0.5)",cs_pos_s_new,0,0,0,0,,,,,0,58,58,64,,472.7010192000016,l,correct,1.2231494999941788,,37,B,2024-05-15_15h50.01.840,gca_discrimination2,2022.2.4,144.00672799191537,
positions.xlsx,stimuli.xlsx,test.xlsx,stimuli/Test1.png,stimuli/Test2.png,stimuli/Social2.png,stimuli/Social1.png,stimuli/Nonsocial2.png,stimuli/Nonsocial1.png,stimuli/Social4.png,stimuli/Social3.png,stimuli/Nonsocial4.png,stimuli/Nonsocial3.png,"(0.7, -0.5)",cs_neg_s_new,"(-0.7, 0.5)",cs_pos_s_new,0,0,0,0,,,,,0,59,59,20,,476.2077981000002,ä,correct,0.531865499997366,,37,B,2024-05-15_15h50.01.840,gca_discrimination2,2022.2.4,144.00672799191537,
positions.xlsx,stimuli.xlsx,test.xlsx,stimuli/Test1.png,stimuli/Test2.png,stimuli/Social2.png,stimuli/Social1.png,stimuli/Nonsocial2.png,stimuli/Nonsocial1.png,stimuli/Social4.png,stimuli/Social3.png,stimuli/Nonsocial4.png,stimuli/Nonsocial3.png,"(-0.7, 0.5)",cs_neg_ns,"(0.7, -0.5)",cs_neg_ns_new,0,0,0,0,,,,,0,60,60,36,,479.27709590000086,ä,correct,0.8306405999974231,,37,B,2024-05-15_15h50.01.840,gca_discrimination2,2022.2.4,144.00672799191537,
positions.xlsx,stimuli.xlsx,test.xlsx,stimuli/Test1.png,stimuli/Test2.png,stimuli/Social2.png,stimuli/Social1.png,stimuli/Nonsocial2.png,stimuli/Nonsocial1.png,stimuli/Social4.png,stimuli/Social3.png,stimuli/Nonsocial4.png,stimuli/Nonsocial3.png,"(0.7, -0.5)",cs_neg_s,"(-0.7, -0.5)",cs_pos_s_new,0,0,0,0,,,,,0,61,61,14,,482.88805130000037,l,wrong,0.9411179999988235,,37,B,2024-05-15_15h50.01.840,gca_discrimination2,2022.2.4,144.00672799191537,
positions.xlsx,stimuli.xlsx,test.xlsx,stimuli/Test1.png,stimuli/Test2.png,stimuli/Social2.png,stimuli/Social1.png,stimuli/Nonsocial2.png,stimuli/Nonsocial1.png,stimuli/Social4.png,stimuli/Social3.png,stimuli/Nonsocial4.png,stimuli/Nonsocial3.png,"(0.7, -0.5)",cs_pos_s,"(-0.7, -0.5)",cs_pos_s_new,0,0,0,0,,,,,0,62,62,9,,486.2976935000006,l,wrong,0.4267364999977872,,37,B,2024-05-15_15h50.01.840,gca_discrimination2,2022.2.4,144.00672799191537,
positions.xlsx,stimuli.xlsx,test.xlsx,stimuli/Test1.png,stimuli/Test2.png,stimuli/Social2.png,stimuli/Social1.png,stimuli/Nonsocial2.png,stimuli/Nonsocial1.png,stimuli/Social4.png,stimuli/Social3.png,stimuli/Nonsocial4.png,stimuli/Nonsocial3.png,"(-0.7, -0.5)",cs_neg_ns_new,"(-0.7, 0.5)",cs_neg_ns_new,0,0,0,0,,,,,0,63,63,91,,489.096175900002,l,correct,0.8762495999944804,,37,B,2024-05-15_15h50.01.840,gca_discrimination2,2022.2.4,144.00672799191537,
positions.xlsx,stimuli.xlsx,test.xlsx,stimuli/Test1.png,stimuli/Test2.png,stimuli/Social2.png,stimuli/Social1.png,stimuli/Nonsocial2.png,stimuli/Nonsocial1.png,stimuli/Social4.png,stimuli/Social3.png,stimuli/Nonsocial4.png,stimuli/Nonsocial3.png,"(0.7, 0.5)",cs_neg_ns_new,"(-0.7, -0.5)",cs_pos_ns,0,0,0,0,,,,,0,64,64,25,,491.79747490000227,l,wrong,1.1598291999980574,,37,B,2024-05-15_15h50.01.840,gca_discrimination2,2022.2.4,144.00672799191537,
positions.xlsx,stimuli.xlsx,test.xlsx,stimuli/Test1.png,stimuli/Test2.png,stimuli/Social2.png,stimuli/Social1.png,stimuli/Nonsocial2.png,stimuli/Nonsocial1.png,stimuli/Social4.png,stimuli/Social3.png,stimuli/Nonsocial4.png,stimuli/Nonsocial3.png,"(0.7, 0.5)",cs_neg_s,"(0.7, -0.5)",cs_pos_s,0,0,0,0,,,,,0,65,65,12,,495.5820227000004,ä,correct,1.0154536999980337,,37,B,2024-05-15_15h50.01.840,gca_discrimination2,2022.2.4,144.00672799191537,
positions.xlsx,stimuli.xlsx,test.xlsx,stimuli/Test1.png,stimuli/Test2.png,stimuli/Social2.png,stimuli/Social1.png,stimuli/Nonsocial2.png,stimuli/Nonsocial1.png,stimuli/Social4.png,stimuli/Social3.png,stimuli/Nonsocial4.png,stimuli/Nonsocial3.png,"(-0.7, 0.5)",cs_neg_s,"(0.7, -0.5)",cs_pos_s,0,0,0,0,,,,,0,66,66,22,,499.4082441999999,l,wrong,1.5957344999987981,,37,B,2024-05-15_15h50.01.840,gca_discrimination2,2022.2.4,144.00672799191537,
positions.xlsx,stimuli.xlsx,test.xlsx,stimuli/Test1.png,stimuli/Test2.png,stimuli/Social2.png,stimuli/Social1.png,stimuli/Nonsocial2.png,stimuli/Nonsocial1.png,stimuli/Social4.png,stimuli/Social3.png,stimuli/Nonsocial4.png,stimuli/Nonsocial3.png,"(-0.7, -0.5)",cs_neg_ns_new,"(0.7, -0.5)",cs_neg_ns,0,0,0,0,,,,,0,67,67,40,,503.5608676000011,l,wrong,0.5396375999989687,,37,B,2024-05-15_15h50.01.840,gca_discrimination2,2022.2.4,144.00672799191537,
positions.xlsx,stimuli.xlsx,test.xlsx,stimuli/Test1.png,stimuli/Test2.png,stimuli/Social2.png,stimuli/Social1.png,stimuli/Nonsocial2.png,stimuli/Nonsocial1.png,stimuli/Social4.png,stimuli/Social3.png,stimuli/Nonsocial4.png,stimuli/Nonsocial3.png,"(-0.7, 0.5)",cs_neg_ns,"(-0.7, -0.5)",cs_neg_ns_new,0,0,0,0,,,,,0,68,68,46,,506.41489569999976,ä,correct,0.7572817999971448,,37,B,2024-05-15_15h50.01.840,gca_discrimination2,2022.2.4,144.00672799191537,
positions.xlsx,stimuli.xlsx,test.xlsx,stimuli/Test1.png,stimuli/Test2.png,stimuli/Social2.png,stimuli/Social1.png,stimuli/Nonsocial2.png,stimuli/Nonsocial1.png,stimuli/Social4.png,stimuli/Social3.png,stimuli/Nonsocial4.png,stimuli/Nonsocial3.png,"(0.7, -0.5)",cs_pos_ns,"(0.7, 0.5)",cs_neg_ns,0,0,0,0,,,,,0,69,69,26,,509.1578404000029,l,wrong,0.37420429999838234,,37,B,2024-05-15_15h50.01.840,gca_discrimination2,2022.2.4,144.00672799191537,
positions.xlsx,stimuli.xlsx,test.xlsx,stimuli/Test1.png,stimuli/Test2.png,stimuli/Social2.png,stimuli/Social1.png,stimuli/Nonsocial2.png,stimuli/Nonsocial1.png,stimuli/Social4.png,stimuli/Social3.png,stimuli/Nonsocial4.png,stimuli/Nonsocial3.png,"(0.7, 0.5)",cs_neg_ns_new,"(-0.7, 0.5)",cs_pos_ns,0,0,0,0,,,,,0,70,70,35,,511.4355453999997,l,wrong,0.6243197999974655,,37,B,2024-05-15_15h50.01.840,gca_discrimination2,2022.2.4,144.00672799191537,
positions.xlsx,stimuli.xlsx,test.xlsx,stimuli/Test1.png,stimuli/Test2.png,stimuli/Social2.png,stimuli/Social1.png,stimuli/Nonsocial2.png,stimuli/Nonsocial1.png,stimuli/Social4.png,stimuli/Social3.png,stimuli/Nonsocial4.png,stimuli/Nonsocial3.png,"(-0.7, 0.5)",cs_pos_s_new,"(-0.7, -0.5)",cs_pos_s,0,0,0,0,,,,,0,71,71,21,,514.4840369000012,ä,correct,0.9055817999978899,,37,B,2024-05-15_15h50.01.840,gca_discrimination2,2022.2.4,144.00672799191537,
positions.xlsx,stimuli.xlsx,test.xlsx,stimuli/Test1.png,stimuli/Test2.png,stimuli/Social2.png,stimuli/Social1.png,stimuli/Nonsocial2.png,stimuli/Nonsocial1.png,stimuli/Social4.png,stimuli/Social3.png,stimuli/Nonsocial4.png,stimuli/Nonsocial3.png,"(0.7, -0.5)",cs_neg_ns_new,"(0.7, 0.5)",cs_neg_ns_new,0,0,0,0,,,,,0,72,72,85,,517.865831500003,l,correct,0.4499755999968329,,37,B,2024-05-15_15h50.01.840,gca_discrimination2,2022.2.4,144.00672799191537,
positions.xlsx,stimuli.xlsx,test.xlsx,stimuli/Test1.png,stimuli/Test2.png,stimuli/Social2.png,stimuli/Social1.png,stimuli/Nonsocial2.png,stimuli/Nonsocial1.png,stimuli/Social4.png,stimuli/Social3.png,stimuli/Nonsocial4.png,stimuli/Nonsocial3.png,"(0.7, -0.5)",cs_neg_ns,"(-0.7, -0.5)",cs_neg_ns,0,0,0,0,,,,,0,73,73,76,,520.7060246000001,l,correct,0.48964409999825875,,37,B,2024-05-15_15h50.01.840,gca_discrimination2,2022.2.4,144.00672799191537,
positions.xlsx,stimuli.xlsx,test.xlsx,stimuli/Test1.png,stimuli/Test2.png,stimuli/Social2.png,stimuli/Social1.png,stimuli/Nonsocial2.png,stimuli/Nonsocial1.png,stimuli/Social4.png,stimuli/Social3.png,stimuli/Nonsocial4.png,stimuli/Nonsocial3.png,"(-0.7, 0.5)",cs_pos_s,"(0.7, -0.5)",cs_neg_s,0,0,0,0,,,,,0,74,74,5,,523.136450500002,ä,correct,1.0116607999989355,,37,B,2024-05-15_15h50.01.840,gca_discrimination2,2022.2.4,144.00672799191537,
positions.xlsx,stimuli.xlsx,test.xlsx,stimuli/Test1.png,stimuli/Test2.png,stimuli/Social2.png,stimuli/Social1.png,stimuli/Nonsocial2.png,stimuli/Nonsocial1.png,stimuli/Social4.png,stimuli/Social3.png,stimuli/Nonsocial4.png,stimuli/Nonsocial3.png,"(-0.7, -0.5)",cs_pos_ns,"(-0.7, 0.5)",cs_pos_ns,0,0,0,0,,,,,0,75,75,87,,526.6501878000017,l,correct,0.3941990999956033,,37,B,2024-05-15_15h50.01.840,gca_discrimination2,2022.2.4,144.00672799191537,
positions.xlsx,stimuli.xlsx,test.xlsx,stimuli/Test1.png,stimuli/Test2.png,stimuli/Social2.png,stimuli/Social1.png,stimuli/Nonsocial2.png,stimuli/Nonsocial1.png,stimuli/Social4.png,stimuli/Social3.png,stimuli/Nonsocial4.png,stimuli/Nonsocial3.png,"(-0.7, -0.5)",cs_neg_ns_new,"(0.7, 0.5)",cs_neg_ns_new,0,0,0,0,,,,,0,76,76,94,,529.5320291000025,l,correct,0.5682756999958656,,37,B,2024-05-15_15h50.01.840,gca_discrimination2,2022.2.4,144.00672799191537,
positions.xlsx,stimuli.xlsx,test.xlsx,stimuli/Test1.png,stimuli/Test2.png,stimuli/Social2.png,stimuli/Social1.png,stimuli/Nonsocial2.png,stimuli/Nonsocial1.png,stimuli/Social4.png,stimuli/Social3.png,stimuli/Nonsocial4.png,stimuli/Nonsocial3.png,"(-0.7, 0.5)",cs_pos_ns,"(0.7, 0.5)",cs_pos_ns,0,0,0,0,,,,,0,77,77,81,,532.0457927000025,l,correct,0.36654970000017784,,37,B,2024-05-15_15h50.01.840,gca_discrimination2,2022.2.4,144.00672799191537,
positions.xlsx,stimuli.xlsx,test.xlsx,stimuli/Test1.png,stimuli/Test2.png,stimuli/Social2.png,stimuli/Social1.png,stimuli/Nonsocial2.png,stimuli/Nonsocial1.png,stimuli/Social4.png,stimuli/Social3.png,stimuli/Nonsocial4.png,stimuli/Nonsocial3.png,"(0.7, -0.5)",cs_pos_s_new,"(0.7, 0.5)",cs_neg_s,0,0,0,0,,,,,0,78,78,0,,534.4137480000027,l,wrong,1.4229987999970035,,37,B,2024-05-15_15h50.01.840,gca_discrimination2,2022.2.4,144.00672799191537,
positions.xlsx,stimuli.xlsx,test.xlsx,stimuli/Test1.png,stimuli/Test2.png,stimuli/Social2.png,stimuli/Social1.png,stimuli/Nonsocial2.png,stimuli/Nonsocial1.png,stimuli/Social4.png,stimuli/Social3.png,stimuli/Nonsocial4.png,stimuli/Nonsocial3.png,"(-0.7, -0.5)",cs_neg_ns_new,"(0.7, 0.5)",cs_pos_ns,0,0,0,0,,,,,0,79,79,39,,537.8580946000002,ä,correct,0.7623612999959732,,37,B,2024-05-15_15h50.01.840,gca_discrimination2,2022.2.4,144.00672799191537,
positions.xlsx,stimuli.xlsx,test.xlsx,stimuli/Test1.png,stimuli/Test2.png,stimuli/Social2.png,stimuli/Social1.png,stimuli/Nonsocial2.png,stimuli/Nonsocial1.png,stimuli/Social4.png,stimuli/Social3.png,stimuli/Nonsocial4.png,stimuli/Nonsocial3.png,"(-0.7, 0.5)",cs_pos_ns,"(-0.7, -0.5)",cs_pos_ns,0,0,0,0,,,,,0,80,80,75,,541.128784200002,l,correct,0.45942919999652077,,37,B,2024-05-15_15h50.01.840,gca_discrimination2,2022.2.4,144.00672799191537,
positions.xlsx,stimuli.xlsx,test.xlsx,stimuli/Test1.png,stimuli/Test2.png,stimuli/Social2.png,stimuli/Social1.png,stimuli/Nonsocial2.png,stimuli/Nonsocial1.png,stimuli/Social4.png,stimuli/Social3.png,stimuli/Nonsocial4.png,stimuli/Nonsocial3.png,"(0.7, -0.5)",cs_pos_ns,"(-0.7, -0.5)",cs_pos_ns,0,0,0,0,,,,,0,81,81,84,,543.6355958000022,l,correct,0.44079039999633096,,37,B,2024-05-15_15h50.01.840,gca_discrimination2,2022.2.4,144.00672799191537,
positions.xlsx,stimuli.xlsx,test.xlsx,stimuli/Test1.png,stimuli/Test2.png,stimuli/Social2.png,stimuli/Social1.png,stimuli/Nonsocial2.png,stimuli/Nonsocial1.png,stimuli/Social4.png,stimuli/Social3.png,stimuli/Nonsocial4.png,stimuli/Nonsocial3.png,"(-0.7, 0.5)",cs_neg_ns_new,"(0.7, -0.5)",cs_neg_ns_new,0,0,0,0,,,,,0,82,82,73,,546.3924638999997,ä,wrong,1.0192123999986507,,37,B,2024-05-15_15h50.01.840,gca_discrimination2,2022.2.4,144.00672799191537,
positions.xlsx,stimuli.xlsx,test.xlsx,stimuli/Test1.png,stimuli/Test2.png,stimuli/Social2.png,stimuli/Social1.png,stimuli/Nonsocial2.png,stimuli/Nonsocial1.png,stimuli/Social4.png,stimuli/Social3.png,stimuli/Nonsocial4.png,stimuli/Nonsocial3.png,"(0.7, 0.5)",cs_pos_s_new,"(-0.7, 0.5)",cs_pos_s_new,0,0,0,0,,,,,0,83,83,62,,550.1145524000021,l,correct,1.025951099996746,,37,B,2024-05-15_15h50.01.840,gca_discrimination2,2022.2.4,144.00672799191537,
positions.xlsx,stimuli.xlsx,test.xlsx,stimuli/Test1.png,stimuli/Test2.png,stimuli/Social2.png,stimuli/Social1.png,stimuli/Nonsocial2.png,stimuli/Nonsocial1.png,stimuli/Social4.png,stimuli/Social3.png,stimuli/Nonsocial4.png,stimuli/Nonsocial3.png,"(-0.7, -0.5)",cs_pos_s_new,"(-0.7, 0.5)",cs_pos_s_new,0,0,0,0,,,,,0,84,84,53,,553.7879761000004,l,correct,0.7447900999977719,,37,B,2024-05-15_15h50.01.840,gca_discrimination2,2022.2.4,144.00672799191537,
positions.xlsx,stimuli.xlsx,test.xlsx,stimuli/Test1.png,stimuli/Test2.png,stimuli/Social2.png,stimuli/Social1.png,stimuli/Nonsocial2.png,stimuli/Nonsocial1.png,stimuli/Social4.png,stimuli/Social3.png,stimuli/Nonsocial4.png,stimuli/Nonsocial3.png,"(0.7, -0.5)",cs_neg_ns_new,"(-0.7, 0.5)",cs_neg_ns,0,0,0,0,,,,,0,85,85,42,,557.1906354000021,ä,correct,0.9893831999979739,,37,B,2024-05-15_15h50.01.840,gca_discrimination2,2022.2.4,144.00672799191537,
positions.xlsx,stimuli.xlsx,test.xlsx,stimuli/Test1.png,stimuli/Test2.png,stimuli/Social2.png,stimuli/Social1.png,stimuli/Nonsocial2.png,stimuli/Nonsocial1.png,stimuli/Social4.png,stimuli/Social3.png,stimuli/Nonsocial4.png,stimuli/Nonsocial3.png,"(-0.7, 0.5)",cs_pos_ns,"(-0.7, -0.5)",cs_neg_ns_new,0,0,0,0,,,,,0,86,86,33,,560.8640682000005,ä,correct,0.7894489999962389,,37,B,2024-05-15_15h50.01.840,gca_discrimination2,2022.2.4,144.00672799191537,
positions.xlsx,stimuli.xlsx,test.xlsx,stimuli/Test1.png,stimuli/Test2.png,stimuli/Social2.png,stimuli/Social1.png,stimuli/Nonsocial2.png,stimuli/Nonsocial1.png,stimuli/Social4.png,stimuli/Social3.png,stimuli/Nonsocial4.png,stimuli/Nonsocial3.png,"(-0.7, -0.5)",cs_neg_s,"(0.7, -0.5)",cs_neg_s,0,0,0,0,,,,,0,87,87,61,,563.6070252999998,l,correct,1.20480779999707,,37,B,2024-05-15_15h50.01.840,gca_discrimination2,2022.2.4,144.00672799191537,
positions.xlsx,stimuli.xlsx,test.xlsx,stimuli/Test1.png,stimuli/Test2.png,stimuli/Social2.png,stimuli/Social1.png,stimuli/Nonsocial2.png,stimuli/Nonsocial1.png,stimuli/Social4.png,stimuli/Social3.png,stimuli/Nonsocial4.png,stimuli/Nonsocial3.png,"(0.7, -0.5)",cs_pos_s,"(-0.7, 0.5)",cs_neg_s,0,0,0,0,,,,,0,88,88,8,,567.454090700001,ä,correct,1.6703830999977072,,37,B,2024-05-15_15h50.01.840,gca_discrimination2,2022.2.4,144.00672799191537,
positions.xlsx,stimuli.xlsx,test.xlsx,stimuli/Test1.png,stimuli/Test2.png,stimuli/Social2.png,stimuli/Social1.png,stimuli/Nonsocial2.png,stimuli/Nonsocial1.png,stimuli/Social4.png,stimuli/Social3.png,stimuli/Nonsocial4.png,stimuli/Nonsocial3.png,"(-0.7, 0.5)",cs_pos_s,"(0.7, -0.5)",cs_pos_s_new,0,0,0,0,,,,,0,89,89,15,,571.7039089000027,l,wrong,0.7237756999966223,,37,B,2024-05-15_15h50.01.840,gca_discrimination2,2022.2.4,144.00672799191537,
positions.xlsx,stimuli.xlsx,test.xlsx,stimuli/Test1.png,stimuli/Test2.png,stimuli/Social2.png,stimuli/Social1.png,stimuli/Nonsocial2.png,stimuli/Nonsocial1.png,stimuli/Social4.png,stimuli/Social3.png,stimuli/Nonsocial4.png,stimuli/Nonsocial3.png,"(0.7, -0.5)",cs_pos_s_new,"(0.7, 0.5)",cs_pos_s_new,0,0,0,0,,,,,0,90,90,58,,574.3427198999998,l,correct,0.6060439999964728,,37,B,2024-05-15_15h50.01.840,gca_discrimination2,2022.2.4,144.00672799191537,
positions.xlsx,stimuli.xlsx,test.xlsx,stimuli/Test1.png,stimuli/Test2.png,stimuli/Social2.png,stimuli/Social1.png,stimuli/Nonsocial2.png,stimuli/Nonsocial1.png,stimuli/Social4.png,stimuli/Social3.png,stimuli/Nonsocial4.png,stimuli/Nonsocial3.png,"(-0.7, -0.5)",cs_neg_s_new,"(-0.7, 0.5)",cs_neg_s,0,0,0,0,,,,,0,91,91,13,,577.2731206999997,ä,correct,0.9230136999976821,,37,B,2024-05-15_15h50.01.840,gca_discrimination2,2022.2.4,144.00672799191537,
positions.xlsx,stimuli.xlsx,test.xlsx,stimuli/Test1.png,stimuli/Test2.png,stimuli/Social2.png,stimuli/Social1.png,stimuli/Nonsocial2.png,stimuli/Nonsocial1.png,stimuli/Social4.png,stimuli/Social3.png,stimuli/Nonsocial4.png,stimuli/Nonsocial3.png,"(0.7, 0.5)",cs_pos_ns,"(0.7, -0.5)",cs_pos_ns,0,0,0,0,,,,,0,92,92,86,,580.1063361000015,l,correct,1.0903836999968917,,37,B,2024-05-15_15h50.01.840,gca_discrimination2,2022.2.4,144.00672799191537,
positions.xlsx,stimuli.xlsx,test.xlsx,stimuli/Test1.png,stimuli/Test2.png,stimuli/Social2.png,stimuli/Social1.png,stimuli/Nonsocial2.png,stimuli/Nonsocial1.png,stimuli/Social4.png,stimuli/Social3.png,stimuli/Nonsocial4.png,stimuli/Nonsocial3.png,"(0.7, -0.5)",cs_pos_ns_new,"(0.7, 0.5)",cs_pos_ns,0,0,0,0,,,,,0,93,93,44,,583.1062022000006,l,wrong,0.4096849999987171,,37,B,2024-05-15_15h50.01.840,gca_discrimination2,2022.2.4,144.00672799191537,
positions.xlsx,stimuli.xlsx,test.xlsx,stimuli/Test1.png,stimuli/Test2.png,stimuli/Social2.png,stimuli/Social1.png,stimuli/Nonsocial2.png,stimuli/Nonsocial1.png,stimuli/Social4.png,stimuli/Social3.png,stimuli/Nonsocial4.png,stimuli/Nonsocial3.png,"(0.7, -0.5)",cs_neg_ns,"(-0.7, -0.5)",cs_pos_ns_new,0,0,0,0,,,,,0,94,94,24,,585.7935902999998,l,wrong,0.48263869999573217,,37,B,2024-05-15_15h50.01.840,gca_discrimination2,2022.2.4,144.00672799191537,
positions.xlsx,stimuli.xlsx,test.xlsx,stimuli/Test1.png,stimuli/Test2.png,stimuli/Social2.png,stimuli/Social1.png,stimuli/Nonsocial2.png,stimuli/Nonsocial1.png,stimuli/Social4.png,stimuli/Social3.png,stimuli/Nonsocial4.png,stimuli/Nonsocial3.png,"(0.7, 0.5)",cs_neg_s_new,"(-0.7, -0.5)",cs_pos_s,0,0,0,0,,,,,0,95,95,16,,589.0087501000016,ä,correct,0.9791456999955699,,37,B,2024-05-15_15h50.01.840,gca_discrimination2,2022.2.4,144.00672799191537,
